onset	duration	trial_type	expected_response	given_response	response_time
 0.000	 2.700	ISI	0	0	 0.000
 2.700	 1.350	ISI	0	0	 0.000
 4.050	 0.675	Cue	0	0	 0.000
 4.725	 3.037	ISI	0	0	 0.000
 7.762	 0.270	Bip	0	0	 0.000
 8.032	 2.498	H_rough	0	0	 0.000
 10.530	 3.037	ISI	0	0	 0.000
 13.567	 0.270	Bip	0	0	 0.000
 13.837	 2.498	H_rough	0	0	 0.000
 16.335	 1.351	ISI	0	0	 0.000
 17.686	 0.270	Bip	0	0	 0.000
 17.956	 2.497	H_smooth	0	0	 0.000
 20.453	 0.675	Cue	0	0	 0.000
 21.128	 2.835	Reponse	0	0	 0.000
 23.963	 3.037	ISI	0	0	 0.000
 27.000	 0.270	Bip	0	0	 0.000
 27.270	 2.498	H_rough	0	0	 0.000
 29.768	 1.687	ISI	0	0	 0.000
 31.455	 0.270	Bip	0	0	 0.000
 31.725	 2.499	H_smooth	0	0	 0.000
 34.224	 1.350	ISI	0	0	 0.000
 35.574	 0.270	Bip	0	0	 0.000
 35.844	 2.497	H_smooth	0	0	 0.000
 38.341	 0.675	Cue	0	0	 0.000
 39.016	 3.713	ISI	0	0	 0.000
 42.729	 14.175	Rest	0	0	 0.000
 56.904	 0.675	Cue	0	0	 0.000
 57.579	 2.363	ISI	0	0	 0.000
 59.942	 0.270	Bip	0	0	 0.000
 60.212	 2.497	AH_rough	0	0	 0.000
 62.709	 0.675	Cue	0	0	 0.000
 63.384	 2.835	Reponse	0	0	 0.000
 66.219	 3.039	ISI	0	0	 0.000
 69.258	 0.270	Bip	0	0	 0.000
 69.528	 2.497	AH_rough	0	0	 0.000
 72.025	 1.688	ISI	0	0	 0.000
 73.713	 0.270	Bip	0	0	 0.000
 73.983	 2.497	AH_smooth	0	0	 0.000
 76.480	 1.687	ISI	0	0	 0.000
 78.167	 0.270	Bip	0	0	 0.000
 78.437	 2.498	AH_smooth	0	0	 0.000
 80.935	 1.687	ISI	0	0	 0.000
 82.622	 0.270	Bip	0	0	 0.000
 82.892	 2.498	AH_smooth	0	0	 0.000
 85.390	 2.363	ISI	0	0	 0.000
 87.753	 0.270	Bip	0	0	 0.000
 88.023	 2.498	AH_rough	0	0	 0.000
 90.521	 0.675	Cue	0	0	 0.000
 91.196	 2.362	ISI	0	0	 0.000
 93.558	 0.270	Bip	0	0	 0.000
 93.828	 2.498	A_smooth	0	0	 0.000
 96.326	 1.350	ISI	0	0	 0.000
 97.676	 0.270	Bip	0	0	 0.000
 97.946	 2.497	A_smooth	0	0	 0.000
 100.443	 1.687	ISI	0	0	 0.000
 102.130	 0.270	Bip	0	0	 0.000
 102.400	 2.499	A_smooth	0	0	 0.000
 104.899	 1.350	ISI	0	0	 0.000
 106.249	 0.270	Bip	0	0	 0.000
 106.519	 2.497	A_rough	0	0	 0.000
 109.016	 0.675	ISI	0	0	 0.000
 109.691	 0.270	Bip	0	0	 0.000
 109.961	 2.498	A_rough	0	0	 0.000
 112.459	 0.675	Cue	0	0	 0.000
 113.134	 2.835	Reponse	0	0	 0.000
 115.969	 3.037	ISI	0	0	 0.000
 119.006	 0.270	Bip	0	0	 0.000
 119.276	 2.499	A_rough	0	0	 0.000
 121.775	 0.675	Cue	0	0	 0.000
 122.450	 3.037	ISI	0	0	 0.000
 125.487	 0.270	Bip	0	0	 0.000
 125.757	 2.497	H_smooth	0	0	 0.000
 128.254	 1.688	ISI	0	0	 0.000
 129.942	 0.270	Bip	0	0	 0.000
 130.212	 2.497	H_smooth	0	0	 0.000
 132.709	 0.675	Cue	0	0	 0.000
 133.384	 2.835	Reponse	0	0	 0.000
 136.219	 3.039	ISI	0	0	 0.000
 139.258	 0.270	Bip	0	0	 0.000
 139.528	 2.497	H_rough	0	0	 0.000
 142.025	 1.350	ISI	0	0	 0.000
 143.375	 0.270	Bip	0	0	 0.000
 143.645	 2.498	H_rough	0	0	 0.000
 146.143	 2.362	ISI	0	0	 0.000
 148.505	 0.270	Bip	0	0	 0.000
 148.775	 2.498	H_rough	0	0	 0.000
 151.273	 1.350	ISI	0	0	 0.000
 152.623	 0.270	Bip	0	0	 0.000
 152.893	 2.497	H_smooth	0	0	 0.000
 155.390	 0.675	Cue	0	0	 0.000
 156.065	 2.363	ISI	0	0	 0.000
 158.428	 14.175	Rest	0	0	 0.000
 172.603	 0.675	ISI	0	0	 0.000
 173.278	 0.270	Bip	0	0	 0.000
 173.548	 2.499	A_rough	0	0	 0.000
 176.047	 1.350	ISI	0	0	 0.000
 177.397	 0.270	Bip	0	0	 0.000
 177.667	 2.497	A_smooth	0	0	 0.000
 180.164	 1.350	ISI	0	0	 0.000
 181.514	 0.270	Bip	0	0	 0.000
 181.784	 2.497	A_rough	0	0	 0.000
 184.281	 1.350	ISI	0	0	 0.000
 185.631	 0.270	Bip	0	0	 0.000
 185.901	 2.498	A_smooth	0	0	 0.000
 188.399	 0.675	ISI	0	0	 0.000
 189.074	 0.270	Bip	0	0	 0.000
 189.344	 2.498	A_rough	0	0	 0.000
 191.842	 0.675	Cue	0	0	 0.000
 192.517	 2.835	Reponse	0	0	 0.000
 195.352	 3.038	ISI	0	0	 0.000
 198.390	 0.270	Bip	0	0	 0.000
 198.660	 2.497	A_smooth	0	0	 0.000
 201.157	 0.675	Cue	0	0	 0.000
 201.832	 2.362	ISI	0	0	 0.000
 204.194	 0.270	Bip	0	0	 0.000
 204.464	 2.498	AH_smooth	0	0	 0.000
 206.962	 1.687	ISI	0	0	 0.000
 208.649	 0.271	Bip	0	0	 0.000
 208.920	 2.498	AH_smooth	0	0	 0.000
 211.418	 1.687	ISI	0	0	 0.000
 213.105	 0.270	Bip	0	0	 0.000
 213.375	 2.498	AH_rough	0	0	 0.000
 215.873	 1.687	ISI	0	0	 0.000
 217.560	 0.270	Bip	0	0	 0.000
 217.830	 2.498	AH_rough	0	0	 0.000
 220.328	 1.350	ISI	0	0	 0.000
 221.678	 0.270	Bip	0	0	 0.000
 221.948	 2.497	AH_smooth	0	0	 0.000
 224.445	 2.364	ISI	0	0	 0.000
 226.809	 0.270	Bip	0	0	 0.000
 227.079	 2.497	AH_rough	0	0	 0.000
 229.576	 0.675	Cue	0	0	 0.000
 230.251	 2.835	Reponse	0	0	 0.000
 233.086	 0.675	Cue	0	0	 0.000
 233.761	 3.037	ISI	0	0	 0.000
 236.798	 0.270	Bip	0	0	 0.000
 237.068	 2.498	A_rough	0	0	 0.000
 239.566	 1.350	ISI	0	0	 0.000
 240.916	 0.270	Bip	0	0	 0.000
 241.186	 2.497	A_smooth	0	0	 0.000
 243.683	 1.351	ISI	0	0	 0.000
 245.034	 0.270	Bip	0	0	 0.000
 245.304	 2.498	A_rough	0	0	 0.000
 247.802	 1.687	ISI	0	0	 0.000
 249.489	 0.270	Bip	0	0	 0.000
 249.759	 2.498	A_smooth	0	0	 0.000
 252.257	 0.675	Cue	0	0	 0.000
 252.932	 2.835	Reponse	0	0	 0.000
 255.767	 3.037	ISI	0	0	 0.000
 258.804	 0.270	Bip	0	0	 0.000
 259.074	 2.498	A_smooth	0	0	 0.000
 261.572	 1.350	ISI	0	0	 0.000
 262.922	 0.270	Bip	0	0	 0.000
 263.192	 2.498	A_rough	0	0	 0.000
 265.690	 0.675	Cue	0	0	 0.000
 266.365	 2.362	ISI	0	0	 0.000
 268.727	 0.270	Bip	0	0	 0.000
 268.997	 2.498	H_rough	0	0	 0.000
 271.495	 0.675	Cue	0	0	 0.000
 272.170	 2.835	Reponse	0	0	 0.000
 275.005	 3.037	ISI	0	0	 0.000
 278.042	 0.270	Bip	0	0	 0.000
 278.312	 2.499	H_rough	0	0	 0.000
 280.811	 1.350	ISI	0	0	 0.000
 282.161	 0.270	Bip	0	0	 0.000
 282.431	 2.497	H_smooth	0	0	 0.000
 284.928	 1.350	ISI	0	0	 0.000
 286.278	 0.270	Bip	0	0	 0.000
 286.548	 2.497	H_smooth	0	0	 0.000
 289.045	 1.350	ISI	0	0	 0.000
 290.395	 0.270	Bip	0	0	 0.000
 290.665	 2.498	H_rough	0	0	 0.000
 293.163	 1.350	ISI	0	0	 0.000
 294.513	 0.270	Bip	0	0	 0.000
 294.783	 2.498	H_smooth	0	0	 0.000
 297.281	 0.675	Cue	0	0	 0.000
 297.956	 1.688	ISI	0	0	 0.000
 299.644	 14.175	Rest	0	0	 0.000
 313.819	 0.675	Cue	0	0	 0.000
 314.494	 2.363	ISI	0	0	 0.000
 316.857	 0.270	Bip	0	0	 0.000
 317.127	 2.497	AH_rough	0	0	 0.000
 319.624	 1.688	ISI	0	0	 0.000
 321.312	 0.270	Bip	0	0	 0.000
 321.582	 2.497	AH_smooth	0	0	 0.000
 324.079	 1.350	ISI	0	0	 0.000
 325.429	 0.270	Bip	0	0	 0.000
 325.699	 2.498	AH_rough	0	0	 0.000
 328.197	 1.350	ISI	0	0	 0.000
 329.547	 0.270	Bip	0	0	 0.000
 329.817	 2.498	AH_rough	0	0	 0.000
 332.315	 1.350	ISI	0	0	 0.000
 333.665	 0.270	Bip	0	0	 0.000
 333.935	 2.497	AH_smooth	0	0	 0.000
 336.432	 0.675	Cue	0	0	 0.000
 337.107	 2.835	Reponse	0	0	 0.000
 339.942	 2.363	ISI	0	0	 0.000
 342.305	 0.270	Bip	0	0	 0.000
 342.575	 2.497	AH_smooth	0	0	 0.000
 345.072	 0.675	Cue	0	0	 0.000
 345.747	 2.363	ISI	0	0	 0.000
 348.110	 0.270	Bip	0	0	 0.000
 348.380	 2.498	A_smooth	0	0	 0.000
 350.878	 0.675	ISI	0	0	 0.000
 351.553	 0.270	Bip	0	0	 0.000
 351.823	 2.498	A_smooth	0	0	 0.000
 354.321	 0.675	Cue	0	0	 0.000
 354.996	 2.835	Reponse	0	0	 0.000
 357.831	 2.362	ISI	0	0	 0.000
 360.193	 0.270	Bip	0	0	 0.000
 360.463	 2.497	A_rough	0	0	 0.000
 362.960	 1.688	ISI	0	0	 0.000
 364.648	 0.270	Bip	0	0	 0.000
 364.918	 2.498	A_smooth	0	0	 0.000
 367.416	 0.675	ISI	0	0	 0.000
 368.091	 0.270	Bip	0	0	 0.000
 368.361	 2.498	A_rough	0	0	 0.000
 370.859	 1.350	ISI	0	0	 0.000
 372.209	 0.270	Bip	0	0	 0.000
 372.479	 2.497	A_rough	0	0	 0.000
 374.976	 0.675	ISI	0	0	 0.000
 375.651	 14.176	Rest	0	0	 0.000
 389.827	 0.675	Cue	0	0	 0.000
 390.502	 1.687	ISI	0	0	 0.000
 392.189	 0.270	Bip	0	0	 0.000
 392.459	 2.498	AH_rough	0	0	 0.000
 394.957	 1.350	ISI	0	0	 0.000
 396.307	 0.270	Bip	0	0	 0.000
 396.577	 2.497	AH_smooth	0	0	 0.000
 399.074	 1.350	ISI	0	0	 0.000
 400.424	 0.270	Bip	0	0	 0.000
 400.694	 2.499	AH_rough	0	0	 0.000
 403.193	 1.350	ISI	0	0	 0.000
 404.543	 0.270	Bip	0	0	 0.000
 404.813	 2.497	AH_rough	0	0	 0.000
 407.310	 0.675	ISI	0	0	 0.000
 407.985	 0.270	Bip	0	0	 0.000
 408.255	 2.498	AH_smooth	0	0	 0.000
 410.753	 0.675	Cue	0	0	 0.000
 411.428	 2.835	Reponse	0	0	 0.000
 414.263	 2.362	ISI	0	0	 0.000
 416.625	 0.270	Bip	0	0	 0.000
 416.895	 2.498	AH_smooth	0	0	 0.000
 419.393	 1.350	ISI	0	0	 0.000
 420.743	 0.270	Bip	0	0	 0.000
 421.013	 2.498	H_rough	0	0	 0.000
 423.511	 0.675	ISI	0	0	 0.000
 424.186	 0.270	Bip	0	0	 0.000
 424.456	 2.497	H_smooth	0	0	 0.000
 426.953	 2.363	ISI	0	0	 0.000
 429.316	 0.270	Bip	0	0	 0.000
 429.586	 2.497	H_rough	0	0	 0.000
 432.083	 0.675	Cue	0	0	 0.000
 432.758	 2.835	Reponse	0	0	 0.000
 435.593	 3.714	ISI	0	0	 0.000
 439.307	 0.270	Bip	0	0	 0.000
 439.577	 2.497	H_smooth	0	0	 0.000
 442.074	 2.362	ISI	0	0	 0.000
 444.436	 0.270	Bip	0	0	 0.000
 444.706	 2.498	H_rough	0	0	 0.000
 447.204	 3.037	ISI	0	0	 0.000
 450.241	 0.270	Bip	0	0	 0.000
 450.511	 2.498	H_smooth	0	0	 0.000
 453.009	 20.183	ISI	0	0	 0.000
