onset	duration	trial_type	expected_response	given_response	response_time
 0.000	 2.700	ISI	0	0	 0.000
 2.700	 1.350	ISI	0	0	 0.000
 4.050	 0.675	Cue	0	0	 0.000
 4.725	 3.038	ISI	0	0	 0.000
 7.763	 0.270	Bip	0	0	 0.000
 8.033	 2.498	H_rough	0	0	 0.000
 10.531	 3.037	ISI	0	0	 0.000
 13.568	 0.270	Bip	0	0	 0.000
 13.838	 2.498	H_rough	0	0	 0.000
 16.336	 1.350	ISI	0	0	 0.000
 17.686	 0.270	Bip	0	0	 0.000
 17.956	 2.497	H_smooth	0	0	 0.000
 20.453	 0.675	Cue	0	0	 0.000
 21.128	 2.835	Reponse	0	0	 0.000
 23.963	 3.038	ISI	0	0	 0.000
 27.001	 0.270	Bip	0	0	 0.000
 27.271	 2.498	H_rough	0	0	 0.000
 29.769	 1.688	ISI	0	0	 0.000
 31.457	 0.270	Bip	0	0	 0.000
 31.727	 2.497	H_smooth	0	0	 0.000
 34.224	 1.350	ISI	0	0	 0.000
 35.574	 0.270	Bip	0	0	 0.000
 35.844	 2.497	H_smooth	0	0	 0.000
 38.341	 0.675	Cue	0	0	 0.000
 39.016	 3.713	ISI	0	0	 0.000
 42.729	 14.176	Rest	0	0	 0.000
 56.905	 0.675	Cue	0	0	 0.000
 57.580	 2.362	ISI	0	0	 0.000
 59.942	 0.270	Bip	0	0	 0.000
 60.212	 2.498	AH_rough	0	0	 0.000
 62.710	 0.675	Cue	0	0	 0.000
 63.385	 2.835	Reponse	0	0	 0.000
 66.220	 3.038	ISI	0	0	 0.000
 69.258	 0.270	Bip	0	0	 0.000
 69.528	 2.497	AH_rough	0	0	 0.000
 72.025	 1.688	ISI	0	0	 0.000
 73.713	 0.270	Bip	0	0	 0.000
 73.983	 2.497	AH_smooth	0	0	 0.000
 76.480	 1.688	ISI	0	0	 0.000
 78.168	 0.270	Bip	0	0	 0.000
 78.438	 2.498	AH_smooth	0	0	 0.000
 80.936	 1.688	ISI	0	0	 0.000
 82.624	 0.270	Bip	0	0	 0.000
 82.894	 2.497	AH_smooth	0	0	 0.000
 85.391	 2.363	ISI	0	0	 0.000
 87.754	 0.270	Bip	0	0	 0.000
 88.024	 2.497	AH_rough	0	0	 0.000
 90.521	 0.675	Cue	0	0	 0.000
 91.196	 2.362	ISI	0	0	 0.000
 93.558	 0.270	Bip	0	0	 0.000
 93.828	 2.498	A_smooth	0	0	 0.000
 96.326	 1.350	ISI	0	0	 0.000
 97.676	 0.271	Bip	0	0	 0.000
 97.947	 2.497	A_smooth	0	0	 0.000
 100.444	 1.688	ISI	0	0	 0.000
 102.132	 0.270	Bip	0	0	 0.000
 102.402	 2.497	A_smooth	0	0	 0.000
 104.899	 1.350	ISI	0	0	 0.000
 106.249	 0.270	Bip	0	0	 0.000
 106.519	 2.498	A_rough	0	0	 0.000
 109.017	 0.675	ISI	0	0	 0.000
 109.692	 0.270	Bip	0	0	 0.000
 109.962	 2.497	A_rough	0	0	 0.000
 112.459	 0.675	Cue	0	0	 0.000
 113.134	 2.836	Reponse	0	0	 0.000
 115.970	 3.037	ISI	0	0	 0.000
 119.007	 0.270	Bip	0	0	 0.000
 119.277	 2.498	A_rough	0	0	 0.000
 121.775	 0.675	Cue	0	0	 0.000
 122.450	 3.037	ISI	0	0	 0.000
 125.487	 0.270	Bip	0	0	 0.000
 125.757	 2.498	H_smooth	0	0	 0.000
 128.255	 1.687	ISI	0	0	 0.000
 129.942	 0.270	Bip	0	0	 0.000
 130.212	 2.498	H_smooth	0	0	 0.000
 132.710	 0.676	Cue	0	0	 0.000
 133.386	 2.835	Reponse	0	0	 0.000
 136.221	 3.037	ISI	0	0	 0.000
 139.258	 0.270	Bip	0	0	 0.000
 139.528	 2.498	H_rough	0	0	 0.000
 142.026	 1.350	ISI	0	0	 0.000
 143.376	 0.269	Bip	0	0	 0.000
 143.645	 2.498	H_rough	0	0	 0.000
 146.143	 2.362	ISI	0	0	 0.000
 148.505	 0.270	Bip	0	0	 0.000
 148.775	 2.499	H_rough	0	0	 0.000
 151.274	 1.350	ISI	0	0	 0.000
 152.624	 0.270	Bip	0	0	 0.000
 152.894	 2.497	H_smooth	0	0	 0.000
 155.391	 0.675	Cue	0	0	 0.000
 156.066	 2.363	ISI	0	0	 0.000
 158.429	 14.175	Rest	0	0	 0.000
 172.604	 0.675	ISI	0	0	 0.000
 173.279	 0.270	Bip	0	0	 0.000
 173.549	 2.498	A_rough	0	0	 0.000
 176.047	 1.350	ISI	0	0	 0.000
 177.397	 0.270	Bip	0	0	 0.000
 177.667	 2.497	A_smooth	0	0	 0.000
 180.164	 1.350	ISI	0	0	 0.000
 181.514	 0.270	Bip	0	0	 0.000
 181.784	 2.498	A_rough	0	0	 0.000
 184.282	 1.351	ISI	0	0	 0.000
 185.633	 0.270	Bip	0	0	 0.000
 185.903	 2.497	A_smooth	0	0	 0.000
 188.400	 0.675	ISI	0	0	 0.000
 189.075	 0.270	Bip	0	0	 0.000
 189.345	 2.498	A_rough	0	0	 0.000
 191.843	 0.675	Cue	0	0	 0.000
 192.518	 2.835	Reponse	0	0	 0.000
 195.353	 3.037	ISI	0	0	 0.000
 198.390	 0.270	Bip	0	0	 0.000
 198.660	 2.497	A_smooth	0	0	 0.000
 201.157	 0.675	Cue	0	0	 0.000
 201.832	 2.364	ISI	0	0	 0.000
 204.196	 0.270	Bip	0	0	 0.000
 204.466	 2.497	AH_smooth	0	0	 0.000
 206.963	 1.688	ISI	0	0	 0.000
 208.651	 0.270	Bip	0	0	 0.000
 208.921	 2.497	AH_smooth	0	0	 0.000
 211.418	 1.688	ISI	0	0	 0.000
 213.106	 0.270	Bip	0	0	 0.000
 213.376	 2.497	AH_rough	0	0	 0.000
 215.873	 1.688	ISI	0	0	 0.000
 217.561	 0.270	Bip	0	0	 0.000
 217.831	 2.498	AH_rough	0	0	 0.000
 220.329	 1.350	ISI	0	0	 0.000
 221.679	 0.270	Bip	0	0	 0.000
 221.949	 2.497	AH_smooth	0	0	 0.000
 224.446	 2.363	ISI	0	0	 0.000
 226.809	 0.270	Bip	0	0	 0.000
 227.079	 2.497	AH_rough	0	0	 0.000
 229.576	 0.675	Cue	0	0	 0.000
 230.251	 2.835	Reponse	0	0	 0.000
 233.086	 0.675	Cue	0	0	 0.000
 233.761	 3.038	ISI	0	0	 0.000
 236.799	 0.270	Bip	0	0	 0.000
 237.069	 2.498	A_rough	0	0	 0.000
 239.567	 1.350	ISI	0	0	 0.000
 240.917	 0.270	Bip	0	0	 0.000
 241.187	 2.498	A_smooth	0	0	 0.000
 243.685	 1.350	ISI	0	0	 0.000
 245.035	 0.270	Bip	0	0	 0.000
 245.305	 2.497	A_rough	0	0	 0.000
 247.802	 1.687	ISI	0	0	 0.000
 249.489	 0.270	Bip	0	0	 0.000
 249.759	 2.498	A_smooth	0	0	 0.000
 252.257	 0.675	Cue	0	0	 0.000
 252.932	 2.836	Reponse	0	0	 0.000
 255.768	 3.037	ISI	0	0	 0.000
 258.805	 0.270	Bip	0	0	 0.000
 259.075	 2.498	A_smooth	0	0	 0.000
 261.573	 1.350	ISI	0	0	 0.000
 262.923	 0.270	Bip	0	0	 0.000
 263.193	 2.497	A_rough	0	0	 0.000
 265.690	 0.675	Cue	0	0	 0.000
 266.365	 2.363	ISI	0	0	 0.000
 268.728	 0.270	Bip	0	0	 0.000
 268.998	 2.497	H_rough	0	0	 0.000
 271.495	 0.675	Cue	0	0	 0.000
 272.170	 2.836	Reponse	0	0	 0.000
 275.006	 3.037	ISI	0	0	 0.000
 278.043	 0.270	Bip	0	0	 0.000
 278.313	 2.498	H_rough	0	0	 0.000
 280.811	 1.350	ISI	0	0	 0.000
 282.161	 0.270	Bip	0	0	 0.000
 282.431	 2.497	H_smooth	0	0	 0.000
 284.928	 1.350	ISI	0	0	 0.000
 286.278	 0.270	Bip	0	0	 0.000
 286.548	 2.498	H_smooth	0	0	 0.000
 289.046	 1.351	ISI	0	0	 0.000
 290.397	 0.270	Bip	0	0	 0.000
 290.667	 2.497	H_rough	0	0	 0.000
 293.164	 1.350	ISI	0	0	 0.000
 294.514	 0.270	Bip	0	0	 0.000
 294.784	 2.498	H_smooth	0	0	 0.000
 297.282	 0.675	Cue	0	0	 0.000
 297.957	 1.687	ISI	0	0	 0.000
 299.644	 14.176	Rest	0	0	 0.000
 313.820	 0.675	Cue	0	0	 0.000
 314.495	 2.362	ISI	0	0	 0.000
 316.857	 0.270	Bip	0	0	 0.000
 317.127	 2.498	AH_rough	0	0	 0.000
 319.625	 1.687	ISI	0	0	 0.000
 321.312	 0.270	Bip	0	0	 0.000
 321.582	 2.498	AH_smooth	0	0	 0.000
 324.080	 1.351	ISI	0	0	 0.000
 325.431	 0.270	Bip	0	0	 0.000
 325.701	 2.497	AH_rough	0	0	 0.000
 328.198	 1.350	ISI	0	0	 0.000
 329.548	 0.270	Bip	0	0	 0.000
 329.818	 2.497	AH_rough	0	0	 0.000
 332.315	 1.350	ISI	0	0	 0.000
 333.665	 0.270	Bip	0	0	 0.000
 333.935	 2.498	AH_smooth	0	0	 0.000
 336.433	 0.675	Cue	0	0	 0.000
 337.108	 2.835	Reponse	0	0	 0.000
 339.943	 2.362	ISI	0	0	 0.000
 342.305	 0.270	Bip	0	0	 0.000
 342.575	 2.499	AH_smooth	0	0	 0.000
 345.074	 0.675	Cue	0	0	 0.000
 345.749	 2.362	ISI	0	0	 0.000
 348.111	 0.270	Bip	0	0	 0.000
 348.381	 2.498	A_smooth	0	0	 0.000
 350.879	 0.675	ISI	0	0	 0.000
 351.554	 0.270	Bip	0	0	 0.000
 351.824	 2.497	A_smooth	0	0	 0.000
 354.321	 0.675	Cue	0	0	 0.000
 354.996	 2.835	Reponse	0	0	 0.000
 357.831	 2.363	ISI	0	0	 0.000
 360.194	 0.270	Bip	0	0	 0.000
 360.464	 2.498	A_rough	0	0	 0.000
 362.962	 1.687	ISI	0	0	 0.000
 364.649	 0.270	Bip	0	0	 0.000
 364.919	 2.498	A_smooth	0	0	 0.000
 367.417	 0.675	ISI	0	0	 0.000
 368.092	 0.270	Bip	0	0	 0.000
 368.362	 2.497	A_rough	0	0	 0.000
 370.859	 1.350	ISI	0	0	 0.000
 372.209	 0.270	Bip	0	0	 0.000
 372.479	 2.498	A_rough	0	0	 0.000
 374.977	 0.675	ISI	0	0	 0.000
 375.652	 14.175	Rest	0	0	 0.000
 389.827	 0.675	Cue	0	0	 0.000
 390.502	 1.688	ISI	0	0	 0.000
 392.190	 0.270	Bip	0	0	 0.000
 392.460	 2.497	AH_rough	0	0	 0.000
 394.957	 1.351	ISI	0	0	 0.000
 396.308	 0.270	Bip	0	0	 0.000
 396.578	 2.498	AH_smooth	0	0	 0.000
 399.076	 1.350	ISI	0	0	 0.000
 400.426	 0.270	Bip	0	0	 0.000
 400.696	 2.497	AH_rough	0	0	 0.000
 403.193	 1.350	ISI	0	0	 0.000
 404.543	 0.270	Bip	0	0	 0.000
 404.813	 2.498	AH_rough	0	0	 0.000
 407.311	 0.675	ISI	0	0	 0.000
 407.986	 0.270	Bip	0	0	 0.000
 408.256	 2.497	AH_smooth	0	0	 0.000
 410.753	 0.675	Cue	0	0	 0.000
 411.428	 2.836	Reponse	0	0	 0.000
 414.264	 2.362	ISI	0	0	 0.000
 416.626	 0.270	Bip	0	0	 0.000
 416.896	 2.498	AH_smooth	0	0	 0.000
 419.394	 1.350	ISI	0	0	 0.000
 420.744	 0.270	Bip	0	0	 0.000
 421.014	 2.497	H_rough	0	0	 0.000
 423.511	 0.675	ISI	0	0	 0.000
 424.186	 0.270	Bip	0	0	 0.000
 424.456	 2.498	H_smooth	0	0	 0.000
 426.954	 2.362	ISI	0	0	 0.000
 429.316	 0.270	Bip	0	0	 0.000
 429.586	 2.499	H_rough	0	0	 0.000
 432.085	 0.675	Cue	0	0	 0.000
 432.760	 2.835	Reponse	0	0	 0.000
 435.595	 3.712	ISI	0	0	 0.000
 439.307	 0.270	Bip	0	0	 0.000
 439.577	 2.497	H_smooth	0	0	 0.000
 442.074	 2.363	ISI	0	0	 0.000
 444.437	 0.270	Bip	0	0	 0.000
 444.707	 2.497	H_rough	0	0	 0.000
 447.204	 3.039	ISI	0	0	 0.000
 450.243	 0.270	Bip	0	0	 0.000
 450.513	 2.497	H_smooth	0	0	 0.000
 453.010	 20.183	ISI	0	0	 0.000
