onset	duration	trial_type	expected_response	given_response	response_time
 0.000	 2.700	ISI	0	0	 0.000
 2.700	 1.350	ISI	0	0	 0.000
 4.050	 0.675	Cue	0	0	 0.000
 4.725	 3.037	ISI	0	0	 0.000
 7.762	 0.270	Bip	0	0	 0.000
 8.032	 2.499	AH_rough	0	0	 0.000
 10.531	 3.037	ISI	0	0	 0.000
 13.568	 0.270	Bip	0	0	 0.000
 13.838	 2.497	AH_smooth	0	0	 0.000
 16.335	 0.675	Cue	0	0	 0.000
 17.010	 2.835	Reponse	0	0	 0.000
 19.845	 3.038	ISI	0	0	 0.000
 22.883	 0.270	Bip	0	0	 0.000
 23.153	 2.497	AH_rough	0	0	 0.000
 25.650	 2.364	ISI	0	0	 0.000
 28.014	 0.270	Bip	0	0	 0.000
 28.284	 2.497	AH_smooth	0	0	 0.000
 30.781	 1.350	ISI	0	0	 0.000
 32.131	 0.270	Bip	0	0	 0.000
 32.401	 2.498	AH_rough	0	0	 0.000
 34.899	 2.025	ISI	0	0	 0.000
 36.924	 0.270	Bip	0	0	 0.000
 37.194	 2.497	AH_smooth	0	0	 0.000
 39.691	 2.025	ISI	0	0	 0.000
 41.716	 0.270	Bip	0	0	 0.000
 41.986	 2.498	H_rough	0	0	 0.000
 44.484	 0.675	Cue	0	0	 0.000
 45.159	 2.835	Reponse	0	0	 0.000
 47.994	 3.713	ISI	0	0	 0.000
 51.707	 0.270	Bip	0	0	 0.000
 51.977	 2.497	H_smooth	0	0	 0.000
 54.474	 1.688	ISI	0	0	 0.000
 56.162	 0.270	Bip	0	0	 0.000
 56.432	 2.497	H_smooth	0	0	 0.000
 58.929	 3.039	ISI	0	0	 0.000
 61.968	 0.270	Bip	0	0	 0.000
 62.238	 2.497	H_rough	0	0	 0.000
 64.735	 2.025	ISI	0	0	 0.000
 66.760	 0.270	Bip	0	0	 0.000
 67.030	 2.497	H_rough	0	0	 0.000
 69.527	 1.688	ISI	0	0	 0.000
 71.215	 0.270	Bip	0	0	 0.000
 71.485	 2.497	H_smooth	0	0	 0.000
 73.982	 0.675	Cue	0	0	 0.000
 74.657	 3.038	ISI	0	0	 0.000
 77.695	 14.176	Rest	0	0	 0.000
 91.871	 0.675	ISI	0	0	 0.000
 92.546	 0.270	Bip	0	0	 0.000
 92.816	 2.497	A_smooth	0	0	 0.000
 95.313	 1.351	ISI	0	0	 0.000
 96.664	 0.270	Bip	0	0	 0.000
 96.934	 2.497	A_rough	0	0	 0.000
 99.431	 1.350	ISI	0	0	 0.000
 100.781	 0.270	Bip	0	0	 0.000
 101.051	 2.498	A_smooth	0	0	 0.000
 103.549	 1.687	ISI	0	0	 0.000
 105.236	 0.270	Bip	0	0	 0.000
 105.506	 2.498	A_rough	0	0	 0.000
 108.004	 0.675	Cue	0	0	 0.000
 108.679	 2.835	Reponse	0	0	 0.000
 111.514	 3.038	ISI	0	0	 0.000
 114.552	 0.270	Bip	0	0	 0.000
 114.822	 2.498	A_rough	0	0	 0.000
 117.320	 1.687	ISI	0	0	 0.000
 119.007	 0.270	Bip	0	0	 0.000
 119.277	 2.497	A_smooth	0	0	 0.000
 121.774	 0.675	Cue	0	0	 0.000
 122.449	 2.363	ISI	0	0	 0.000
 124.812	 0.270	Bip	0	0	 0.000
 125.082	 2.497	AH_smooth	0	0	 0.000
 127.579	 1.350	ISI	0	0	 0.000
 128.929	 0.270	Bip	0	0	 0.000
 129.199	 2.499	AH_rough	0	0	 0.000
 131.698	 1.350	ISI	0	0	 0.000
 133.048	 0.270	Bip	0	0	 0.000
 133.318	 2.497	AH_smooth	0	0	 0.000
 135.815	 1.688	ISI	0	0	 0.000
 137.503	 0.270	Bip	0	0	 0.000
 137.773	 2.497	AH_smooth	0	0	 0.000
 140.270	 1.688	ISI	0	0	 0.000
 141.958	 0.270	Bip	0	0	 0.000
 142.228	 2.497	AH_rough	0	0	 0.000
 144.725	 1.350	ISI	0	0	 0.000
 146.075	 0.270	Bip	0	0	 0.000
 146.345	 2.498	AH_rough	0	0	 0.000
 148.843	 0.675	Cue	0	0	 0.000
 149.518	 2.835	Reponse	0	0	 0.000
 152.353	 0.675	Cue	0	0	 0.000
 153.028	 3.038	ISI	0	0	 0.000
 156.066	 14.176	Rest	0	0	 0.000
 170.242	 0.675	Cue	0	0	 0.000
 170.917	 3.037	ISI	0	0	 0.000
 173.954	 0.270	Bip	0	0	 0.000
 174.224	 2.497	H_rough	0	0	 0.000
 176.721	 2.025	ISI	0	0	 0.000
 178.746	 0.270	Bip	0	0	 0.000
 179.016	 2.498	H_smooth	0	0	 0.000
 181.514	 1.688	ISI	0	0	 0.000
 183.202	 0.270	Bip	0	0	 0.000
 183.472	 2.498	H_rough	0	0	 0.000
 185.970	 0.675	Cue	0	0	 0.000
 186.645	 2.835	Reponse	0	0	 0.000
 189.480	 3.037	ISI	0	0	 0.000
 192.517	 0.270	Bip	0	0	 0.000
 192.787	 2.498	H_smooth	0	0	 0.000
 195.285	 1.350	ISI	0	0	 0.000
 196.635	 0.270	Bip	0	0	 0.000
 196.905	 2.497	H_rough	0	0	 0.000
 199.402	 1.351	ISI	0	0	 0.000
 200.753	 0.270	Bip	0	0	 0.000
 201.023	 2.497	H_smooth	0	0	 0.000
 203.520	 0.675	Cue	0	0	 0.000
 204.195	 3.713	ISI	0	0	 0.000
 207.908	 0.270	Bip	0	0	 0.000
 208.178	 2.497	A_smooth	0	0	 0.000
 210.675	 0.675	ISI	0	0	 0.000
 211.350	 0.270	Bip	0	0	 0.000
 211.620	 2.498	A_rough	0	0	 0.000
 214.118	 0.675	Cue	0	0	 0.000
 214.793	 2.835	Reponse	0	0	 0.000
 217.628	 3.038	ISI	0	0	 0.000
 220.666	 0.270	Bip	0	0	 0.000
 220.936	 2.498	A_rough	0	0	 0.000
 223.434	 1.687	ISI	0	0	 0.000
 225.121	 0.270	Bip	0	0	 0.000
 225.391	 2.498	A_smooth	0	0	 0.000
 227.889	 1.349	ISI	0	0	 0.000
 229.238	 0.270	Bip	0	0	 0.000
 229.508	 2.498	A_smooth	0	0	 0.000
 232.006	 1.687	ISI	0	0	 0.000
 233.693	 0.270	Bip	0	0	 0.000
 233.963	 2.499	A_rough	0	0	 0.000
 236.462	 0.675	ISI	0	0	 0.000
 237.137	 14.175	Rest	0	0	 0.000
 251.312	 0.675	Cue	0	0	 0.000
 251.987	 2.363	ISI	0	0	 0.000
 254.350	 0.270	Bip	0	0	 0.000
 254.620	 2.497	AH_rough	0	0	 0.000
 257.117	 1.688	ISI	0	0	 0.000
 258.805	 0.270	Bip	0	0	 0.000
 259.075	 2.497	AH_smooth	0	0	 0.000
 261.572	 1.350	ISI	0	0	 0.000
 262.922	 0.270	Bip	0	0	 0.000
 263.192	 2.498	AH_rough	0	0	 0.000
 265.690	 1.350	ISI	0	0	 0.000
 267.040	 0.270	Bip	0	0	 0.000
 267.310	 2.497	AH_smooth	0	0	 0.000
 269.807	 0.675	Cue	0	0	 0.000
 270.482	 3.039	Reponse	0	0	 0.000
 273.521	 3.037	ISI	0	0	 0.000
 276.558	 0.270	Bip	0	0	 0.000
 276.828	 2.498	AH_rough	0	0	 0.000
 279.326	 2.024	ISI	0	0	 0.000
 281.350	 0.270	Bip	0	0	 0.000
 281.620	 2.498	AH_smooth	0	0	 0.000
 284.118	 0.675	Cue	0	0	 0.000
 284.793	 3.037	ISI	0	0	 0.000
 287.830	 0.271	Bip	0	0	 0.000
 288.101	 2.498	A_rough	0	0	 0.000
 290.599	 1.687	ISI	0	0	 0.000
 292.286	 0.270	Bip	0	0	 0.000
 292.556	 2.498	A_smooth	0	0	 0.000
 295.054	 0.675	Cue	0	0	 0.000
 295.729	 2.835	Reponse	0	0	 0.000
 298.564	 2.362	ISI	0	0	 0.000
 300.926	 0.270	Bip	0	0	 0.000
 301.196	 2.498	A_rough	0	0	 0.000
 303.694	 1.350	ISI	0	0	 0.000
 305.044	 0.270	Bip	0	0	 0.000
 305.314	 2.498	A_smooth	0	0	 0.000
 307.812	 1.350	ISI	0	0	 0.000
 309.162	 0.270	Bip	0	0	 0.000
 309.432	 2.497	A_smooth	0	0	 0.000
 311.929	 1.688	ISI	0	0	 0.000
 313.617	 0.270	Bip	0	0	 0.000
 313.887	 2.497	A_rough	0	0	 0.000
 316.384	 0.675	Cue	0	0	 0.000
 317.059	 2.363	ISI	0	0	 0.000
 319.422	 0.270	Bip	0	0	 0.000
 319.692	 2.497	H_smooth	0	0	 0.000
 322.189	 1.689	ISI	0	0	 0.000
 323.878	 0.270	Bip	0	0	 0.000
 324.148	 2.497	H_rough	0	0	 0.000
 326.645	 1.688	ISI	0	0	 0.000
 328.333	 0.270	Bip	0	0	 0.000
 328.603	 2.497	H_rough	0	0	 0.000
 331.100	 1.350	ISI	0	0	 0.000
 332.450	 0.270	Bip	0	0	 0.000
 332.720	 2.497	H_smooth	0	0	 0.000
 335.217	 0.675	Cue	0	0	 0.000
 335.892	 2.835	Reponse	0	0	 0.000
 338.727	 3.039	ISI	0	0	 0.000
 341.766	 0.270	Bip	0	0	 0.000
 342.036	 2.497	H_smooth	0	0	 0.000
 344.533	 1.688	ISI	0	0	 0.000
 346.221	 0.270	Bip	0	0	 0.000
 346.491	 2.497	H_rough	0	0	 0.000
 348.988	 0.675	Cue	0	0	 0.000
 349.663	 3.038	ISI	0	0	 0.000
 352.701	 14.175	Rest	0	0	 0.000
 366.876	 0.675	ISI	0	0	 0.000
 367.551	 0.270	Bip	0	0	 0.000
 367.821	 2.498	A_rough	0	0	 0.000
 370.319	 2.025	ISI	0	0	 0.000
 372.344	 0.270	Bip	0	0	 0.000
 372.614	 2.497	A_rough	0	0	 0.000
 375.111	 1.689	ISI	0	0	 0.000
 376.800	 0.270	Bip	0	0	 0.000
 377.070	 2.497	A_smooth	0	0	 0.000
 379.567	 0.675	Cue	0	0	 0.000
 380.242	 2.835	Reponse	0	0	 0.000
 383.077	 2.363	ISI	0	0	 0.000
 385.440	 0.270	Bip	0	0	 0.000
 385.710	 2.497	A_rough	0	0	 0.000
 388.207	 1.687	ISI	0	0	 0.000
 389.894	 0.270	Bip	0	0	 0.000
 390.164	 2.498	A_smooth	0	0	 0.000
 392.662	 1.688	ISI	0	0	 0.000
 394.350	 0.270	Bip	0	0	 0.000
 394.620	 2.498	A_smooth	0	0	 0.000
 397.118	 0.675	Cue	0	0	 0.000
 397.793	 2.362	ISI	0	0	 0.000
 400.155	 0.270	Bip	0	0	 0.000
 400.425	 2.498	AH_rough	0	0	 0.000
 402.923	 0.675	Cue	0	0	 0.000
 403.598	 2.835	Reponse	0	0	 0.000
 406.433	 2.362	ISI	0	0	 0.000
 408.795	 0.270	Bip	0	0	 0.000
 409.065	 2.499	AH_smooth	0	0	 0.000
 411.564	 1.687	ISI	0	0	 0.000
 413.251	 0.270	Bip	0	0	 0.000
 413.521	 2.497	AH_smooth	0	0	 0.000
 416.018	 2.363	ISI	0	0	 0.000
 418.381	 0.270	Bip	0	0	 0.000
 418.651	 2.497	AH_rough	0	0	 0.000
 421.148	 2.025	ISI	0	0	 0.000
 423.173	 0.270	Bip	0	0	 0.000
 423.443	 2.498	AH_smooth	0	0	 0.000
 425.941	 1.687	ISI	0	0	 0.000
 427.628	 0.270	Bip	0	0	 0.000
 427.898	 2.499	AH_rough	0	0	 0.000
 430.397	 3.037	ISI	0	0	 0.000
 433.434	 0.270	Bip	0	0	 0.000
 433.704	 2.498	H_rough	0	0	 0.000
 436.202	 1.687	ISI	0	0	 0.000
 437.889	 0.270	Bip	0	0	 0.000
 438.159	 2.497	H_rough	0	0	 0.000
 440.656	 1.688	ISI	0	0	 0.000
 442.344	 0.270	Bip	0	0	 0.000
 442.614	 2.497	H_smooth	0	0	 0.000
 445.111	 0.676	Cue	0	0	 0.000
 445.787	 2.835	Reponse	0	0	 0.000
 448.622	 3.038	ISI	0	0	 0.000
 451.660	 0.270	Bip	0	0	 0.000
 451.930	 2.497	H_smooth	0	0	 0.000
 454.427	 3.038	ISI	0	0	 0.000
 457.465	 0.270	Bip	0	0	 0.000
 457.735	 2.497	H_smooth	0	0	 0.000
 460.232	 3.039	ISI	0	0	 0.000
 463.271	 0.270	Bip	0	0	 0.000
 463.541	 2.497	H_rough	0	0	 0.000
 466.038	 7.155	ISI	0	0	 0.000
