onset	duration	trial_type	expected_response	given_response	response_time
 0.000	 2.699	ISI	0	0	 0.000
 2.699	 1.350	ISI	0	0	 0.000
 4.049	 0.675	Cue	0	0	 0.000
 4.724	 2.364	ISI	0	0	 0.000
 7.088	 0.270	Bip	0	0	 0.000
 7.358	 2.497	A_rough	0	0	 0.000
 9.855	 3.038	ISI	0	0	 0.000
 12.893	 0.270	Bip	0	0	 0.000
 13.163	 2.497	A_smooth	0	0	 0.000
 15.660	 2.025	ISI	0	0	 0.000
 17.685	 0.270	Bip	0	0	 0.000
 17.955	 2.498	A_smooth	0	0	 0.000
 20.453	 1.687	ISI	0	0	 0.000
 22.140	 0.270	Bip	0	0	 0.000
 22.410	 2.498	A_rough	0	0	 0.000
 24.908	 1.688	ISI	0	0	 0.000
 26.596	 0.270	Bip	0	0	 0.000
 26.866	 2.497	A_rough	0	0	 0.000
 29.363	 2.025	ISI	0	0	 0.000
 31.388	 0.271	Bip	0	0	 0.000
 31.659	 2.497	A_smooth	0	0	 0.000
 34.156	 0.675	Cue	0	0	 0.000
 34.831	 2.835	Reponse	0	0	 0.000
 37.666	 0.675	Cue	0	0	 0.000
 38.341	 3.037	ISI	0	0	 0.000
 41.378	 0.271	Bip	0	0	 0.000
 41.649	 2.498	AH_rough	0	0	 0.000
 44.147	 2.025	ISI	0	0	 0.000
 46.172	 0.270	Bip	0	0	 0.000
 46.442	 2.497	AH_smooth	0	0	 0.000
 48.939	 1.688	ISI	0	0	 0.000
 50.627	 0.270	Bip	0	0	 0.000
 50.897	 2.497	AH_rough	0	0	 0.000
 53.394	 0.675	Cue	0	0	 0.000
 54.069	 2.835	Reponse	0	0	 0.000
 56.904	 3.713	ISI	0	0	 0.000
 60.617	 0.270	Bip	0	0	 0.000
 60.887	 2.498	AH_smooth	0	0	 0.000
 63.385	 3.037	ISI	0	0	 0.000
 66.422	 0.270	Bip	0	0	 0.000
 66.692	 2.498	AH_rough	0	0	 0.000
 69.190	 2.362	ISI	0	0	 0.000
 71.552	 0.270	Bip	0	0	 0.000
 71.822	 2.498	AH_smooth	0	0	 0.000
 74.320	 0.675	Cue	0	0	 0.000
 74.995	 3.713	ISI	0	0	 0.000
 78.708	 14.175	Rest	0	0	 0.000
 92.883	 0.675	Cue	0	0	 0.000
 93.558	 3.038	ISI	0	0	 0.000
 96.596	 0.270	Bip	0	0	 0.000
 96.866	 2.498	H_rough	0	0	 0.000
 99.364	 3.037	ISI	0	0	 0.000
 102.401	 0.270	Bip	0	0	 0.000
 102.671	 2.498	H_smooth	0	0	 0.000
 105.169	 1.687	ISI	0	0	 0.000
 106.856	 0.270	Bip	0	0	 0.000
 107.126	 2.497	H_rough	0	0	 0.000
 109.623	 2.364	ISI	0	0	 0.000
 111.987	 0.270	Bip	0	0	 0.000
 112.257	 2.497	H_rough	0	0	 0.000
 114.754	 1.688	ISI	0	0	 0.000
 116.442	 0.270	Bip	0	0	 0.000
 116.712	 2.497	H_smooth	0	0	 0.000
 119.209	 0.675	Cue	0	0	 0.000
 119.884	 2.835	Reponse	0	0	 0.000
 122.719	 3.038	ISI	0	0	 0.000
 125.757	 0.270	Bip	0	0	 0.000
 126.027	 2.497	H_smooth	0	0	 0.000
 128.524	 0.676	Cue	0	0	 0.000
 129.200	 3.037	ISI	0	0	 0.000
 132.237	 0.270	Bip	0	0	 0.000
 132.507	 2.498	A_smooth	0	0	 0.000
 135.005	 1.687	ISI	0	0	 0.000
 136.692	 0.270	Bip	0	0	 0.000
 136.962	 2.498	A_rough	0	0	 0.000
 139.460	 0.675	Cue	0	0	 0.000
 140.135	 2.835	Reponse	0	0	 0.000
 142.970	 3.037	ISI	0	0	 0.000
 146.007	 0.270	Bip	0	0	 0.000
 146.277	 2.499	A_smooth	0	0	 0.000
 148.776	 1.687	ISI	0	0	 0.000
 150.463	 0.270	Bip	0	0	 0.000
 150.733	 2.498	A_rough	0	0	 0.000
 153.231	 1.687	ISI	0	0	 0.000
 154.918	 0.270	Bip	0	0	 0.000
 155.188	 2.497	A_rough	0	0	 0.000
 157.685	 2.025	ISI	0	0	 0.000
 159.710	 0.270	Bip	0	0	 0.000
 159.980	 2.498	A_smooth	0	0	 0.000
 162.478	 0.675	ISI	0	0	 0.000
 163.153	 14.176	Rest	0	0	 0.000
 177.329	 0.675	Cue	0	0	 0.000
 178.004	 2.362	ISI	0	0	 0.000
 180.366	 0.270	Bip	0	0	 0.000
 180.636	 2.499	AH_rough	0	0	 0.000
 183.135	 0.674	ISI	0	0	 0.000
 183.809	 0.270	Bip	0	0	 0.000
 184.079	 2.498	AH_rough	0	0	 0.000
 186.577	 1.350	ISI	0	0	 0.000
 187.927	 0.270	Bip	0	0	 0.000
 188.197	 2.497	AH_smooth	0	0	 0.000
 190.694	 1.350	ISI	0	0	 0.000
 192.044	 0.270	Bip	0	0	 0.000
 192.314	 2.498	AH_smooth	0	0	 0.000
 194.812	 1.687	ISI	0	0	 0.000
 196.499	 0.270	Bip	0	0	 0.000
 196.769	 2.499	AH_rough	0	0	 0.000
 199.268	 1.687	ISI	0	0	 0.000
 200.955	 0.270	Bip	0	0	 0.000
 201.225	 2.498	AH_smooth	0	0	 0.000
 203.723	 0.675	Cue	0	0	 0.000
 204.398	 2.835	Reponse	0	0	 0.000
 207.233	 3.712	ISI	0	0	 0.000
 210.945	 0.270	Bip	0	0	 0.000
 211.215	 2.497	H_smooth	0	0	 0.000
 213.712	 1.350	ISI	0	0	 0.000
 215.062	 0.270	Bip	0	0	 0.000
 215.332	 2.499	H_rough	0	0	 0.000
 217.831	 1.350	ISI	0	0	 0.000
 219.181	 0.270	Bip	0	0	 0.000
 219.451	 2.497	H_rough	0	0	 0.000
 221.948	 0.675	Cue	0	0	 0.000
 222.623	 2.835	Reponse	0	0	 0.000
 225.458	 3.038	ISI	0	0	 0.000
 228.496	 0.270	Bip	0	0	 0.000
 228.766	 2.497	H_smooth	0	0	 0.000
 231.263	 2.363	ISI	0	0	 0.000
 233.626	 0.271	Bip	0	0	 0.000
 233.897	 2.497	H_smooth	0	0	 0.000
 236.394	 2.362	ISI	0	0	 0.000
 238.756	 0.270	Bip	0	0	 0.000
 239.026	 2.498	H_rough	0	0	 0.000
 241.524	 0.675	Cue	0	0	 0.000
 242.199	 3.037	ISI	0	0	 0.000
 245.236	 14.176	Rest	0	0	 0.000
 259.412	 0.675	ISI	0	0	 0.000
 260.087	 0.270	Bip	0	0	 0.000
 260.357	 2.498	A_rough	0	0	 0.000
 262.855	 2.024	ISI	0	0	 0.000
 264.879	 0.270	Bip	0	0	 0.000
 265.149	 2.498	A_smooth	0	0	 0.000
 267.647	 1.688	ISI	0	0	 0.000
 269.335	 0.270	Bip	0	0	 0.000
 269.605	 2.498	A_rough	0	0	 0.000
 272.103	 0.675	ISI	0	0	 0.000
 272.778	 0.270	Bip	0	0	 0.000
 273.048	 2.497	A_smooth	0	0	 0.000
 275.545	 2.025	ISI	0	0	 0.000
 277.570	 0.270	Bip	0	0	 0.000
 277.840	 2.498	A_rough	0	0	 0.000
 280.338	 0.675	Cue	0	0	 0.000
 281.013	 2.835	Reponse	0	0	 0.000
 283.848	 3.038	ISI	0	0	 0.000
 286.886	 0.270	Bip	0	0	 0.000
 287.156	 2.497	A_smooth	0	0	 0.000
 289.653	 0.675	Cue	0	0	 0.000
 290.328	 3.038	ISI	0	0	 0.000
 293.366	 0.270	Bip	0	0	 0.000
 293.636	 2.497	H_smooth	0	0	 0.000
 296.133	 1.688	ISI	0	0	 0.000
 297.821	 0.270	Bip	0	0	 0.000
 298.091	 2.497	H_smooth	0	0	 0.000
 300.588	 1.688	ISI	0	0	 0.000
 302.276	 0.270	Bip	0	0	 0.000
 302.546	 2.498	H_rough	0	0	 0.000
 305.044	 1.688	ISI	0	0	 0.000
 306.732	 0.270	Bip	0	0	 0.000
 307.002	 2.497	H_rough	0	0	 0.000
 309.499	 1.688	ISI	0	0	 0.000
 311.187	 0.270	Bip	0	0	 0.000
 311.457	 2.497	H_smooth	0	0	 0.000
 313.954	 0.675	Cue	0	0	 0.000
 314.629	 2.835	Reponse	0	0	 0.000
 317.464	 2.362	ISI	0	0	 0.000
 319.826	 0.270	Bip	0	0	 0.000
 320.096	 2.499	H_rough	0	0	 0.000
 322.595	 1.687	ISI	0	0	 0.000
 324.282	 0.270	Bip	0	0	 0.000
 324.552	 2.498	AH_smooth	0	0	 0.000
 327.050	 0.675	Cue	0	0	 0.000
 327.725	 2.835	Reponse	0	0	 0.000
 330.560	 2.362	ISI	0	0	 0.000
 332.922	 0.270	Bip	0	0	 0.000
 333.192	 2.498	AH_rough	0	0	 0.000
 335.690	 1.687	ISI	0	0	 0.000
 337.377	 0.270	Bip	0	0	 0.000
 337.647	 2.499	AH_rough	0	0	 0.000
 340.146	 2.362	ISI	0	0	 0.000
 342.508	 0.270	Bip	0	0	 0.000
 342.778	 2.497	AH_smooth	0	0	 0.000
 345.275	 1.350	ISI	0	0	 0.000
 346.625	 0.270	Bip	0	0	 0.000
 346.895	 2.498	AH_smooth	0	0	 0.000
 349.393	 1.687	ISI	0	0	 0.000
 351.080	 0.270	Bip	0	0	 0.000
 351.350	 2.498	AH_rough	0	0	 0.000
 353.848	 0.675	Cue	0	0	 0.000
 354.523	 3.038	ISI	0	0	 0.000
 357.561	 14.175	Rest	0	0	 0.000
 371.736	 0.675	Cue	0	0	 0.000
 372.411	 2.363	ISI	0	0	 0.000
 374.774	 0.270	Bip	0	0	 0.000
 375.044	 2.498	H_rough	0	0	 0.000
 377.542	 1.687	ISI	0	0	 0.000
 379.229	 0.270	Bip	0	0	 0.000
 379.499	 2.498	H_rough	0	0	 0.000
 381.997	 1.687	ISI	0	0	 0.000
 383.684	 0.270	Bip	0	0	 0.000
 383.954	 2.498	H_smooth	0	0	 0.000
 386.452	 1.350	ISI	0	0	 0.000
 387.802	 0.270	Bip	0	0	 0.000
 388.072	 2.497	H_smooth	0	0	 0.000
 390.569	 1.351	ISI	0	0	 0.000
 391.920	 0.270	Bip	0	0	 0.000
 392.190	 2.498	H_rough	0	0	 0.000
 394.688	 0.675	Reponse	0	0	 0.000
 395.363	 2.362	ISI	0	0	 0.000
 397.725	 0.270	Bip	0	0	 0.000
 397.995	 2.497	H_smooth	0	0	 0.000
 400.492	 0.675	Cue	0	0	 0.000
 401.167	 2.363	ISI	0	0	 0.000
 403.530	 0.270	Bip	0	0	 0.000
 403.800	 2.497	A_rough	0	0	 0.000
 406.297	 1.688	ISI	0	0	 0.000
 407.985	 0.270	Bip	0	0	 0.000
 408.255	 2.498	A_smooth	0	0	 0.000
 410.753	 2.025	ISI	0	0	 0.000
 412.778	 0.270	Bip	0	0	 0.000
 413.048	 2.498	A_rough	0	0	 0.000
 415.546	 1.687	ISI	0	0	 0.000
 417.233	 0.270	Bip	0	0	 0.000
 417.503	 2.498	A_smooth	0	0	 0.000
 420.001	 0.675	Cue	0	0	 0.000
 420.676	 2.834	Reponse	0	0	 0.000
 423.510	 3.039	ISI	0	0	 0.000
 426.549	 0.270	Bip	0	0	 0.000
 426.819	 2.497	A_smooth	0	0	 0.000
 429.316	 2.363	ISI	0	0	 0.000
 431.679	 0.270	Bip	0	0	 0.000
 431.949	 2.497	A_rough	0	0	 0.000
 434.446	 0.675	Cue	0	0	 0.000
 435.121	 3.713	ISI	0	0	 0.000
 438.834	 0.270	Bip	0	0	 0.000
 439.104	 2.497	AH_smooth	0	0	 0.000
 441.601	 1.688	ISI	0	0	 0.000
 443.289	 0.270	Bip	0	0	 0.000
 443.559	 2.498	AH_smooth	0	0	 0.000
 446.057	 3.038	ISI	0	0	 0.000
 449.095	 0.270	Bip	0	0	 0.000
 449.365	 2.497	AH_smooth	0	0	 0.000
 451.862	 2.362	ISI	0	0	 0.000
 454.224	 0.270	Bip	0	0	 0.000
 454.494	 2.498	AH_rough	0	0	 0.000
 456.992	 3.712	ISI	0	0	 0.000
 460.704	 0.270	Bip	0	0	 0.000
 460.974	 2.499	AH_rough	0	0	 0.000
 463.473	 0.675	Cue	0	0	 0.000
 464.148	 2.835	Reponse	0	0	 0.000
 466.983	 3.037	ISI	0	0	 0.000
 470.020	 0.270	Bip	0	0	 0.000
 470.290	 2.498	AH_rough	0	0	 0.000
 472.788	 0.405	ISI	0	0	 0.000
