onset	duration	trial_type	expected_response	given_response	response_time
 0.000	 2.700	ISI	0	0	 0.000
 2.700	 1.350	ISI	0	0	 0.000
 4.050	 0.675	Cue	0	0	 0.000
 4.725	 2.362	ISI	0	0	 0.000
 7.087	 0.270	Bip	0	0	 0.000
 7.357	 2.498	A_rough	0	0	 0.000
 9.855	 3.038	ISI	0	0	 0.000
 12.893	 0.270	Bip	0	0	 0.000
 13.163	 2.498	A_smooth	0	0	 0.000
 15.661	 2.025	ISI	0	0	 0.000
 17.686	 0.270	Bip	0	0	 0.000
 17.956	 2.497	A_smooth	0	0	 0.000
 20.453	 1.688	ISI	0	0	 0.000
 22.141	 0.270	Bip	0	0	 0.000
 22.411	 2.497	A_rough	0	0	 0.000
 24.908	 1.687	ISI	0	0	 0.000
 26.595	 0.270	Bip	0	0	 0.000
 26.865	 2.499	A_rough	0	0	 0.000
 29.364	 2.025	ISI	0	0	 0.000
 31.389	 0.270	Bip	0	0	 0.000
 31.659	 2.497	A_smooth	0	0	 0.000
 34.156	 0.675	Cue	0	0	 0.000
 34.831	 2.835	Reponse	0	0	 0.000
 37.666	 0.675	Cue	0	0	 0.000
 38.341	 3.038	ISI	0	0	 0.000
 41.379	 0.270	Bip	0	0	 0.000
 41.649	 2.497	AH_rough	0	0	 0.000
 44.146	 2.026	ISI	0	0	 0.000
 46.172	 0.270	Bip	0	0	 0.000
 46.442	 2.498	AH_smooth	0	0	 0.000
 48.940	 1.687	ISI	0	0	 0.000
 50.627	 0.270	Bip	0	0	 0.000
 50.897	 2.497	AH_rough	0	0	 0.000
 53.394	 0.675	Cue	0	0	 0.000
 54.069	 2.835	Reponse	0	0	 0.000
 56.904	 3.713	ISI	0	0	 0.000
 60.617	 0.270	Bip	0	0	 0.000
 60.887	 2.498	AH_smooth	0	0	 0.000
 63.385	 3.038	ISI	0	0	 0.000
 66.423	 0.270	Bip	0	0	 0.000
 66.693	 2.497	AH_rough	0	0	 0.000
 69.190	 2.363	ISI	0	0	 0.000
 71.553	 0.270	Bip	0	0	 0.000
 71.823	 2.497	AH_smooth	0	0	 0.000
 74.320	 0.675	Cue	0	0	 0.000
 74.995	 3.713	ISI	0	0	 0.000
 78.708	 14.175	Rest	0	0	 0.000
 92.883	 0.675	Cue	0	0	 0.000
 93.558	 3.038	ISI	0	0	 0.000
 96.596	 0.270	Bip	0	0	 0.000
 96.866	 2.498	H_rough	0	0	 0.000
 99.364	 3.038	ISI	0	0	 0.000
 102.402	 0.270	Bip	0	0	 0.000
 102.672	 2.497	H_smooth	0	0	 0.000
 105.169	 1.687	ISI	0	0	 0.000
 106.856	 0.271	Bip	0	0	 0.000
 107.127	 2.497	H_rough	0	0	 0.000
 109.624	 2.362	ISI	0	0	 0.000
 111.986	 0.270	Bip	0	0	 0.000
 112.256	 2.498	H_rough	0	0	 0.000
 114.754	 1.688	ISI	0	0	 0.000
 116.442	 0.270	Bip	0	0	 0.000
 116.712	 2.498	H_smooth	0	0	 0.000
 119.210	 0.675	Cue	0	0	 0.000
 119.885	 2.835	Reponse	0	0	 0.000
 122.720	 3.037	ISI	0	0	 0.000
 125.757	 0.270	Bip	0	0	 0.000
 126.027	 2.498	H_smooth	0	0	 0.000
 128.525	 0.675	Cue	0	0	 0.000
 129.200	 3.037	ISI	0	0	 0.000
 132.237	 0.271	Bip	0	0	 0.000
 132.508	 2.497	A_smooth	0	0	 0.000
 135.005	 1.688	ISI	0	0	 0.000
 136.693	 0.270	Bip	0	0	 0.000
 136.963	 2.497	A_rough	0	0	 0.000
 139.460	 0.675	Cue	0	0	 0.000
 140.135	 2.835	Reponse	0	0	 0.000
 142.970	 3.038	ISI	0	0	 0.000
 146.008	 0.270	Bip	0	0	 0.000
 146.278	 2.497	A_smooth	0	0	 0.000
 148.775	 1.689	ISI	0	0	 0.000
 150.464	 0.270	Bip	0	0	 0.000
 150.734	 2.497	A_rough	0	0	 0.000
 153.231	 1.688	ISI	0	0	 0.000
 154.919	 0.270	Bip	0	0	 0.000
 155.189	 2.497	A_rough	0	0	 0.000
 157.686	 2.025	ISI	0	0	 0.000
 159.711	 0.270	Bip	0	0	 0.000
 159.981	 2.497	A_smooth	0	0	 0.000
 162.478	 0.675	ISI	0	0	 0.000
 163.153	 14.176	Rest	0	0	 0.000
 177.329	 0.675	Cue	0	0	 0.000
 178.004	 2.363	ISI	0	0	 0.000
 180.367	 0.270	Bip	0	0	 0.000
 180.637	 2.497	AH_rough	0	0	 0.000
 183.134	 0.675	ISI	0	0	 0.000
 183.809	 0.270	Bip	0	0	 0.000
 184.079	 2.498	AH_rough	0	0	 0.000
 186.577	 1.350	ISI	0	0	 0.000
 187.927	 0.270	Bip	0	0	 0.000
 188.197	 2.498	AH_smooth	0	0	 0.000
 190.695	 1.350	ISI	0	0	 0.000
 192.045	 0.270	Bip	0	0	 0.000
 192.315	 2.497	AH_smooth	0	0	 0.000
 194.812	 1.688	ISI	0	0	 0.000
 196.500	 0.270	Bip	0	0	 0.000
 196.770	 2.497	AH_rough	0	0	 0.000
 199.267	 1.688	ISI	0	0	 0.000
 200.955	 0.270	Bip	0	0	 0.000
 201.225	 2.498	AH_smooth	0	0	 0.000
 203.723	 0.675	Cue	0	0	 0.000
 204.398	 2.835	Reponse	0	0	 0.000
 207.233	 3.713	ISI	0	0	 0.000
 210.946	 0.270	Bip	0	0	 0.000
 211.216	 2.497	H_smooth	0	0	 0.000
 213.713	 1.350	ISI	0	0	 0.000
 215.063	 0.270	Bip	0	0	 0.000
 215.333	 2.497	H_rough	0	0	 0.000
 217.830	 1.350	ISI	0	0	 0.000
 219.180	 0.270	Bip	0	0	 0.000
 219.450	 2.499	H_rough	0	0	 0.000
 221.949	 0.675	Cue	0	0	 0.000
 222.624	 2.835	Reponse	0	0	 0.000
 225.459	 3.037	ISI	0	0	 0.000
 228.496	 0.270	Bip	0	0	 0.000
 228.766	 2.498	H_smooth	0	0	 0.000
 231.264	 2.362	ISI	0	0	 0.000
 233.626	 0.270	Bip	0	0	 0.000
 233.896	 2.498	H_smooth	0	0	 0.000
 236.394	 2.363	ISI	0	0	 0.000
 238.757	 0.270	Bip	0	0	 0.000
 239.027	 2.497	H_rough	0	0	 0.000
 241.524	 0.675	Cue	0	0	 0.000
 242.199	 3.038	ISI	0	0	 0.000
 245.237	 14.176	Rest	0	0	 0.000
 259.413	 0.675	ISI	0	0	 0.000
 260.088	 0.270	Bip	0	0	 0.000
 260.358	 2.497	A_rough	0	0	 0.000
 262.855	 2.025	ISI	0	0	 0.000
 264.880	 0.270	Bip	0	0	 0.000
 265.150	 2.497	A_smooth	0	0	 0.000
 267.647	 1.688	ISI	0	0	 0.000
 269.335	 0.270	Bip	0	0	 0.000
 269.605	 2.497	A_rough	0	0	 0.000
 272.102	 0.676	ISI	0	0	 0.000
 272.778	 0.270	Bip	0	0	 0.000
 273.048	 2.498	A_smooth	0	0	 0.000
 275.546	 2.025	ISI	0	0	 0.000
 277.571	 0.270	Bip	0	0	 0.000
 277.841	 2.497	A_rough	0	0	 0.000
 280.338	 0.675	Cue	0	0	 0.000
 281.013	 2.835	Reponse	0	0	 0.000
 283.848	 3.038	ISI	0	0	 0.000
 286.886	 0.270	Bip	0	0	 0.000
 287.156	 2.497	A_smooth	0	0	 0.000
 289.653	 0.676	Cue	0	0	 0.000
 290.329	 3.037	ISI	0	0	 0.000
 293.366	 0.271	Bip	0	0	 0.000
 293.637	 2.497	H_smooth	0	0	 0.000
 296.134	 1.687	ISI	0	0	 0.000
 297.821	 0.270	Bip	0	0	 0.000
 298.091	 2.498	H_smooth	0	0	 0.000
 300.589	 1.687	ISI	0	0	 0.000
 302.276	 0.270	Bip	0	0	 0.000
 302.546	 2.498	H_rough	0	0	 0.000
 305.044	 1.687	ISI	0	0	 0.000
 306.731	 0.270	Bip	0	0	 0.000
 307.001	 2.499	H_rough	0	0	 0.000
 309.500	 1.687	ISI	0	0	 0.000
 311.187	 0.270	Bip	0	0	 0.000
 311.457	 2.498	H_smooth	0	0	 0.000
 313.955	 0.675	Cue	0	0	 0.000
 314.630	 2.835	Reponse	0	0	 0.000
 317.465	 2.362	ISI	0	0	 0.000
 319.827	 0.270	Bip	0	0	 0.000
 320.097	 2.497	H_rough	0	0	 0.000
 322.594	 1.688	ISI	0	0	 0.000
 324.282	 0.270	Bip	0	0	 0.000
 324.552	 2.498	AH_smooth	0	0	 0.000
 327.050	 0.675	Cue	0	0	 0.000
 327.725	 2.835	Reponse	0	0	 0.000
 330.560	 2.363	ISI	0	0	 0.000
 332.923	 0.270	Bip	0	0	 0.000
 333.193	 2.497	AH_rough	0	0	 0.000
 335.690	 1.688	ISI	0	0	 0.000
 337.378	 0.270	Bip	0	0	 0.000
 337.648	 2.497	AH_rough	0	0	 0.000
 340.145	 2.364	ISI	0	0	 0.000
 342.509	 0.270	Bip	0	0	 0.000
 342.779	 2.497	AH_smooth	0	0	 0.000
 345.276	 1.350	ISI	0	0	 0.000
 346.626	 0.270	Bip	0	0	 0.000
 346.896	 2.497	AH_smooth	0	0	 0.000
 349.393	 1.688	ISI	0	0	 0.000
 351.081	 0.270	Bip	0	0	 0.000
 351.351	 2.497	AH_rough	0	0	 0.000
 353.848	 0.675	Cue	0	0	 0.000
 354.523	 3.038	ISI	0	0	 0.000
 357.561	 14.176	Rest	0	0	 0.000
 371.737	 0.675	Cue	0	0	 0.000
 372.412	 2.362	ISI	0	0	 0.000
 374.774	 0.270	Bip	0	0	 0.000
 375.044	 2.498	H_rough	0	0	 0.000
 377.542	 1.688	ISI	0	0	 0.000
 379.230	 0.270	Bip	0	0	 0.000
 379.500	 2.497	H_rough	0	0	 0.000
 381.997	 1.688	ISI	0	0	 0.000
 383.685	 0.270	Bip	0	0	 0.000
 383.955	 2.497	H_smooth	0	0	 0.000
 386.452	 1.350	ISI	0	0	 0.000
 387.802	 0.270	Bip	0	0	 0.000
 388.072	 2.498	H_smooth	0	0	 0.000
 390.570	 1.350	ISI	0	0	 0.000
 391.920	 0.270	Bip	0	0	 0.000
 392.190	 2.497	H_rough	0	0	 0.000
 394.687	 0.676	Reponse	0	0	 0.000
 395.363	 2.363	ISI	0	0	 0.000
 397.726	 0.270	Bip	0	0	 0.000
 397.996	 2.497	H_smooth	0	0	 0.000
 400.493	 0.675	Cue	0	0	 0.000
 401.168	 2.362	ISI	0	0	 0.000
 403.530	 0.270	Bip	0	0	 0.000
 403.800	 2.498	A_rough	0	0	 0.000
 406.298	 1.687	ISI	0	0	 0.000
 407.985	 0.270	Bip	0	0	 0.000
 408.255	 2.498	A_smooth	0	0	 0.000
 410.753	 2.026	ISI	0	0	 0.000
 412.779	 0.270	Bip	0	0	 0.000
 413.049	 2.497	A_rough	0	0	 0.000
 415.546	 1.688	ISI	0	0	 0.000
 417.234	 0.270	Bip	0	0	 0.000
 417.504	 2.497	A_smooth	0	0	 0.000
 420.001	 0.675	Cue	0	0	 0.000
 420.676	 2.835	Reponse	0	0	 0.000
 423.511	 3.037	ISI	0	0	 0.000
 426.548	 0.270	Bip	0	0	 0.000
 426.818	 2.498	A_smooth	0	0	 0.000
 429.316	 2.363	ISI	0	0	 0.000
 431.679	 0.270	Bip	0	0	 0.000
 431.949	 2.498	A_rough	0	0	 0.000
 434.447	 0.675	Cue	0	0	 0.000
 435.122	 3.712	ISI	0	0	 0.000
 438.834	 0.270	Bip	0	0	 0.000
 439.104	 2.498	AH_smooth	0	0	 0.000
 441.602	 1.687	ISI	0	0	 0.000
 443.289	 0.270	Bip	0	0	 0.000
 443.559	 2.498	AH_smooth	0	0	 0.000
 446.057	 3.038	ISI	0	0	 0.000
 449.095	 0.270	Bip	0	0	 0.000
 449.365	 2.497	AH_smooth	0	0	 0.000
 451.862	 2.363	ISI	0	0	 0.000
 454.225	 0.270	Bip	0	0	 0.000
 454.495	 2.497	AH_rough	0	0	 0.000
 456.992	 3.713	ISI	0	0	 0.000
 460.705	 0.270	Bip	0	0	 0.000
 460.975	 2.497	AH_rough	0	0	 0.000
 463.472	 0.675	Cue	0	0	 0.000
 464.147	 2.836	Reponse	0	0	 0.000
 466.983	 3.038	ISI	0	0	 0.000
 470.021	 0.270	Bip	0	0	 0.000
 470.291	 2.497	AH_rough	0	0	 0.000
 472.788	 0.405	ISI	0	0	 0.000
