onset	duration	trial_type	expected_response	given_response	response_time
 0.000	 2.700	ISI	0	0	 0.000
 2.700	 1.351	ISI	0	0	 0.000
 4.051	 0.675	Cue	0	0	 0.000
 4.726	 3.038	ISI	0	0	 0.000
 7.764	 0.270	Bip	0	0	 0.000
 8.034	 2.497	A_smooth	0	0	 0.000
 10.531	 0.675	ISI	0	0	 0.000
 11.206	 0.270	Bip	0	0	 0.000
 11.476	 2.497	A_smooth	0	0	 0.000
 13.973	 1.350	ISI	0	0	 0.000
 15.323	 0.270	Bip	0	0	 0.000
 15.593	 2.498	A_rough	0	0	 0.000
 18.091	 1.687	ISI	0	0	 0.000
 19.778	 0.270	Bip	0	0	 0.000
 20.048	 2.499	A_smooth	0	0	 0.000
 22.547	 0.675	Cue	0	0	 0.000
 23.222	 2.835	Reponse	0	0	 0.000
 26.057	 3.037	ISI	0	0	 0.000
 29.094	 0.270	Bip	0	0	 0.000
 29.364	 2.498	A_rough	0	0	 0.000
 31.862	 1.350	ISI	0	0	 0.000
 33.212	 0.270	Bip	0	0	 0.000
 33.482	 2.497	A_rough	0	0	 0.000
 35.979	 0.675	Cue	0	0	 0.000
 36.654	 3.713	ISI	0	0	 0.000
 40.367	 0.270	Bip	0	0	 0.000
 40.637	 2.498	H_rough	0	0	 0.000
 43.135	 1.687	ISI	0	0	 0.000
 44.822	 0.270	Bip	0	0	 0.000
 45.092	 2.498	H_smooth	0	0	 0.000
 47.590	 1.687	ISI	0	0	 0.000
 49.277	 0.270	Bip	0	0	 0.000
 49.547	 2.498	H_rough	0	0	 0.000
 52.045	 1.687	ISI	0	0	 0.000
 53.732	 0.270	Bip	0	0	 0.000
 54.002	 2.499	H_rough	0	0	 0.000
 56.501	 0.675	Cue	0	0	 0.000
 57.176	 2.835	Reponse	0	0	 0.000
 60.011	 3.037	ISI	0	0	 0.000
 63.048	 0.270	Bip	0	0	 0.000
 63.318	 2.497	H_smooth	0	0	 0.000
 65.815	 1.350	ISI	0	0	 0.000
 67.165	 0.270	Bip	0	0	 0.000
 67.435	 2.498	H_smooth	0	0	 0.000
 69.933	 1.350	ISI	0	0	 0.000
 71.283	 0.270	Bip	0	0	 0.000
 71.553	 2.498	AH_rough	0	0	 0.000
 74.051	 0.675	Cue	0	0	 0.000
 74.726	 2.835	Reponse	0	0	 0.000
 77.561	 3.038	ISI	0	0	 0.000
 80.599	 0.270	Bip	0	0	 0.000
 80.869	 2.497	AH_smooth	0	0	 0.000
 83.366	 1.688	ISI	0	0	 0.000
 85.054	 0.270	Bip	0	0	 0.000
 85.324	 2.497	AH_smooth	0	0	 0.000
 87.821	 1.688	ISI	0	0	 0.000
 89.509	 0.270	Bip	0	0	 0.000
 89.779	 2.498	AH_rough	0	0	 0.000
 92.277	 1.350	ISI	0	0	 0.000
 93.627	 0.270	Bip	0	0	 0.000
 93.897	 2.497	AH_smooth	0	0	 0.000
 96.394	 1.350	ISI	0	0	 0.000
 97.744	 0.270	Bip	0	0	 0.000
 98.014	 2.498	AH_rough	0	0	 0.000
 100.512	 0.675	Cue	0	0	 0.000
 101.187	 3.037	ISI	0	0	 0.000
 104.224	 14.176	Rest	0	0	 0.000
 118.400	 3.037	ISI	0	0	 0.000
 121.437	 0.270	Bip	0	0	 0.000
 121.707	 2.498	A_smooth	0	0	 0.000
 124.205	 1.687	ISI	0	0	 0.000
 125.892	 0.270	Bip	0	0	 0.000
 126.162	 2.499	A_smooth	0	0	 0.000
 128.661	 0.675	Cue	0	0	 0.000
 129.336	 2.835	Reponse	0	0	 0.000
 132.171	 3.037	ISI	0	0	 0.000
 135.208	 0.270	Bip	0	0	 0.000
 135.478	 2.498	A_rough	0	0	 0.000
 137.976	 1.687	ISI	0	0	 0.000
 139.663	 0.270	Bip	0	0	 0.000
 139.933	 2.498	A_rough	0	0	 0.000
 142.431	 1.688	ISI	0	0	 0.000
 144.119	 0.270	Bip	0	0	 0.000
 144.389	 2.497	A_rough	0	0	 0.000
 146.886	 1.350	ISI	0	0	 0.000
 148.236	 0.270	Bip	0	0	 0.000
 148.506	 2.498	A_smooth	0	0	 0.000
 151.004	 0.675	ISI	0	0	 0.000
 151.679	 14.176	Rest	0	0	 0.000
 165.855	 0.675	Cue	0	0	 0.000
 166.530	 3.037	ISI	0	0	 0.000
 169.567	 0.270	Bip	0	0	 0.000
 169.837	 2.497	H_rough	0	0	 0.000
 172.334	 2.363	ISI	0	0	 0.000
 174.697	 0.270	Bip	0	0	 0.000
 174.967	 2.497	H_rough	0	0	 0.000
 177.464	 1.350	ISI	0	0	 0.000
 178.814	 0.271	Bip	0	0	 0.000
 179.085	 2.498	H_smooth	0	0	 0.000
 181.583	 1.350	ISI	0	0	 0.000
 182.933	 0.270	Bip	0	0	 0.000
 183.203	 2.497	H_smooth	0	0	 0.000
 185.700	 1.688	ISI	0	0	 0.000
 187.388	 0.270	Bip	0	0	 0.000
 187.658	 2.497	H_smooth	0	0	 0.000
 190.155	 0.675	Cue	0	0	 0.000
 190.830	 2.835	Reponse	0	0	 0.000
 193.665	 3.714	ISI	0	0	 0.000
 197.379	 0.269	Bip	0	0	 0.000
 197.648	 2.498	H_rough	0	0	 0.000
 200.146	 1.350	ISI	0	0	 0.000
 201.496	 0.270	Bip	0	0	 0.000
 201.766	 2.497	AH_rough	0	0	 0.000
 204.263	 1.688	ISI	0	0	 0.000
 205.951	 0.270	Bip	0	0	 0.000
 206.221	 2.497	AH_smooth	0	0	 0.000
 208.718	 1.350	ISI	0	0	 0.000
 210.068	 0.270	Bip	0	0	 0.000
 210.338	 2.498	AH_smooth	0	0	 0.000
 212.836	 0.675	Cue	0	0	 0.000
 213.511	 2.836	Reponse	0	0	 0.000
 216.347	 3.037	ISI	0	0	 0.000
 219.384	 0.270	Bip	0	0	 0.000
 219.654	 2.498	AH_rough	0	0	 0.000
 222.152	 1.350	ISI	0	0	 0.000
 223.502	 0.270	Bip	0	0	 0.000
 223.772	 2.497	AH_rough	0	0	 0.000
 226.269	 2.362	ISI	0	0	 0.000
 228.631	 0.270	Bip	0	0	 0.000
 228.901	 2.499	AH_smooth	0	0	 0.000
 231.400	 0.675	Cue	0	0	 0.000
 232.075	 3.037	ISI	0	0	 0.000
 235.112	 14.176	Rest	0	0	 0.000
 249.288	 0.675	ISI	0	0	 0.000
 249.963	 0.270	Bip	0	0	 0.000
 250.233	 2.497	A_rough	0	0	 0.000
 252.730	 0.675	Cue	0	0	 0.000
 253.405	 2.835	Reponse	0	0	 0.000
 256.240	 3.038	ISI	0	0	 0.000
 259.278	 0.270	Bip	0	0	 0.000
 259.548	 2.497	A_smooth	0	0	 0.000
 262.045	 1.350	ISI	0	0	 0.000
 263.395	 0.270	Bip	0	0	 0.000
 263.665	 2.498	A_smooth	0	0	 0.000
 266.163	 2.363	ISI	0	0	 0.000
 268.526	 0.270	Bip	0	0	 0.000
 268.796	 2.498	A_rough	0	0	 0.000
 271.294	 1.350	ISI	0	0	 0.000
 272.644	 0.270	Bip	0	0	 0.000
 272.914	 2.497	A_rough	0	0	 0.000
 275.411	 3.712	ISI	0	0	 0.000
 279.123	 0.270	Bip	0	0	 0.000
 279.393	 2.498	A_smooth	0	0	 0.000
 281.891	 0.675	Cue	0	0	 0.000
 282.566	 3.713	ISI	0	0	 0.000
 286.279	 0.270	Bip	0	0	 0.000
 286.549	 2.498	H_rough	0	0	 0.000
 289.047	 1.687	ISI	0	0	 0.000
 290.734	 0.270	Bip	0	0	 0.000
 291.004	 2.498	H_smooth	0	0	 0.000
 293.502	 0.675	Cue	0	0	 0.000
 294.177	 2.835	Reponse	0	0	 0.000
 297.012	 3.037	ISI	0	0	 0.000
 300.049	 0.270	Bip	0	0	 0.000
 300.319	 2.499	H_rough	0	0	 0.000
 302.818	 1.349	ISI	0	0	 0.000
 304.167	 0.270	Bip	0	0	 0.000
 304.437	 2.498	H_smooth	0	0	 0.000
 306.935	 1.687	ISI	0	0	 0.000
 308.622	 0.270	Bip	0	0	 0.000
 308.892	 2.498	H_rough	0	0	 0.000
 311.390	 1.350	ISI	0	0	 0.000
 312.740	 0.270	Bip	0	0	 0.000
 313.010	 2.497	H_smooth	0	0	 0.000
 315.507	 2.363	ISI	0	0	 0.000
 317.870	 0.270	Bip	0	0	 0.000
 318.140	 2.498	AH_rough	0	0	 0.000
 320.638	 1.350	ISI	0	0	 0.000
 321.988	 0.270	Bip	0	0	 0.000
 322.258	 2.498	AH_rough	0	0	 0.000
 324.756	 1.350	ISI	0	0	 0.000
 326.106	 0.270	Bip	0	0	 0.000
 326.376	 2.497	AH_smooth	0	0	 0.000
 328.873	 1.688	ISI	0	0	 0.000
 330.561	 0.270	Bip	0	0	 0.000
 330.831	 2.497	AH_rough	0	0	 0.000
 333.328	 0.675	Cue	0	0	 0.000
 334.003	 2.836	Reponse	0	0	 0.000
 336.839	 3.712	ISI	0	0	 0.000
 340.551	 0.270	Bip	0	0	 0.000
 340.821	 2.498	AH_smooth	0	0	 0.000
 343.319	 2.362	ISI	0	0	 0.000
 345.681	 0.270	Bip	0	0	 0.000
 345.951	 2.498	AH_smooth	0	0	 0.000
 348.449	 0.675	Cue	0	0	 0.000
 349.124	 3.037	ISI	0	0	 0.000
 352.161	 14.176	Rest	0	0	 0.000
 366.337	 2.362	ISI	0	0	 0.000
 368.699	 0.270	Bip	0	0	 0.000
 368.969	 2.499	A_rough	0	0	 0.000
 371.468	 1.350	ISI	0	0	 0.000
 372.818	 0.270	Bip	0	0	 0.000
 373.088	 2.497	A_rough	0	0	 0.000
 375.585	 1.688	ISI	0	0	 0.000
 377.273	 0.270	Bip	0	0	 0.000
 377.543	 2.497	A_smooth	0	0	 0.000
 380.040	 1.688	ISI	0	0	 0.000
 381.728	 0.270	Bip	0	0	 0.000
 381.998	 2.497	A_smooth	0	0	 0.000
 384.495	 1.350	ISI	0	0	 0.000
 385.845	 0.270	Bip	0	0	 0.000
 386.115	 2.497	A_rough	0	0	 0.000
 388.612	 0.676	Cue	0	0	 0.000
 389.288	 2.835	Reponse	0	0	 0.000
 392.123	 3.038	ISI	0	0	 0.000
 395.161	 0.270	Bip	0	0	 0.000
 395.431	 2.497	A_smooth	0	0	 0.000
 397.928	 0.675	Cue	0	0	 0.000
 398.603	 3.038	ISI	0	0	 0.000
 401.641	 0.270	Bip	0	0	 0.000
 401.911	 2.497	AH_rough	0	0	 0.000
 404.408	 1.350	ISI	0	0	 0.000
 405.758	 0.270	Bip	0	0	 0.000
 406.028	 2.499	AH_smooth	0	0	 0.000
 408.527	 1.687	ISI	0	0	 0.000
 410.214	 0.270	Bip	0	0	 0.000
 410.484	 2.497	AH_smooth	0	0	 0.000
 412.981	 0.675	Cue	0	0	 0.000
 413.656	 2.835	Reponse	0	0	 0.000
 416.491	 3.038	ISI	0	0	 0.000
 419.529	 0.270	Bip	0	0	 0.000
 419.799	 2.497	AH_smooth	0	0	 0.000
 422.296	 1.689	ISI	0	0	 0.000
 423.985	 0.270	Bip	0	0	 0.000
 424.255	 2.497	AH_rough	0	0	 0.000
 426.752	 1.688	ISI	0	0	 0.000
 428.440	 0.270	Bip	0	0	 0.000
 428.710	 2.497	AH_rough	0	0	 0.000
 431.207	 2.363	ISI	0	0	 0.000
 433.570	 0.270	Bip	0	0	 0.000
 433.840	 2.497	H_smooth	0	0	 0.000
 436.337	 1.350	ISI	0	0	 0.000
 437.687	 0.270	Bip	0	0	 0.000
 437.957	 2.497	H_rough	0	0	 0.000
 440.454	 1.689	ISI	0	0	 0.000
 442.143	 0.270	Bip	0	0	 0.000
 442.413	 2.497	H_smooth	0	0	 0.000
 444.910	 2.363	ISI	0	0	 0.000
 447.273	 0.270	Bip	0	0	 0.000
 447.543	 2.497	H_rough	0	0	 0.000
 450.040	 3.038	ISI	0	0	 0.000
 453.078	 0.270	Bip	0	0	 0.000
 453.348	 2.497	H_rough	0	0	 0.000
 455.845	 0.675	Cue	0	0	 0.000
 456.520	 2.836	Reponse	0	0	 0.000
 459.356	 3.038	ISI	0	0	 0.000
 462.394	 0.270	Bip	0	0	 0.000
 462.664	 2.497	H_smooth	0	0	 0.000
 465.161	 8.033	ISI	0	0	 0.000
