onset	duration	trial_type	expected_response	given_response	response_time
 0.000	 2.701	ISI	0	0	 0.000
 2.701	 1.350	ISI	0	0	 0.000
 4.051	 0.675	Cue	0	0	 0.000
 4.726	 3.037	ISI	0	0	 0.000
 7.763	 0.270	Bip	0	0	 0.000
 8.033	 2.498	H_rough	0	0	 0.000
 10.531	 3.037	ISI	0	0	 0.000
 13.568	 0.270	Bip	0	0	 0.000
 13.838	 2.498	H_rough	0	0	 0.000
 16.336	 1.350	ISI	0	0	 0.000
 17.686	 0.270	Bip	0	0	 0.000
 17.956	 2.498	H_smooth	0	0	 0.000
 20.454	 0.675	Cue	0	0	 0.000
 21.129	 2.835	Reponse	0	0	 0.000
 23.964	 3.037	ISI	0	0	 0.000
 27.001	 0.270	Bip	0	0	 0.000
 27.271	 2.498	H_rough	0	0	 0.000
 29.769	 1.687	ISI	0	0	 0.000
 31.456	 0.270	Bip	0	0	 0.000
 31.726	 2.498	H_smooth	0	0	 0.000
 34.224	 1.350	ISI	0	0	 0.000
 35.574	 0.270	Bip	0	0	 0.000
 35.844	 2.498	H_smooth	0	0	 0.000
 38.342	 0.675	Cue	0	0	 0.000
 39.017	 3.713	ISI	0	0	 0.000
 42.730	 14.175	Rest	0	0	 0.000
 56.905	 0.675	Cue	0	0	 0.000
 57.580	 2.363	ISI	0	0	 0.000
 59.943	 0.270	Bip	0	0	 0.000
 60.213	 2.497	AH_rough	0	0	 0.000
 62.710	 0.675	Cue	0	0	 0.000
 63.385	 2.835	Reponse	0	0	 0.000
 66.220	 3.038	ISI	0	0	 0.000
 69.258	 0.270	Bip	0	0	 0.000
 69.528	 2.497	AH_rough	0	0	 0.000
 72.025	 1.688	ISI	0	0	 0.000
 73.713	 0.271	Bip	0	0	 0.000
 73.984	 2.497	AH_smooth	0	0	 0.000
 76.481	 1.687	ISI	0	0	 0.000
 78.168	 0.270	Bip	0	0	 0.000
 78.438	 2.498	AH_smooth	0	0	 0.000
 80.936	 1.687	ISI	0	0	 0.000
 82.623	 0.270	Bip	0	0	 0.000
 82.893	 2.498	AH_smooth	0	0	 0.000
 85.391	 2.362	ISI	0	0	 0.000
 87.753	 0.270	Bip	0	0	 0.000
 88.023	 2.499	AH_rough	0	0	 0.000
 90.522	 0.675	Cue	0	0	 0.000
 91.197	 2.362	ISI	0	0	 0.000
 93.559	 0.270	Bip	0	0	 0.000
 93.829	 2.498	A_smooth	0	0	 0.000
 96.327	 1.350	ISI	0	0	 0.000
 97.677	 0.270	Bip	0	0	 0.000
 97.947	 2.497	A_smooth	0	0	 0.000
 100.444	 1.687	ISI	0	0	 0.000
 102.131	 0.270	Bip	0	0	 0.000
 102.401	 2.498	A_smooth	0	0	 0.000
 104.899	 1.350	ISI	0	0	 0.000
 106.249	 0.270	Bip	0	0	 0.000
 106.519	 2.498	A_rough	0	0	 0.000
 109.017	 0.675	ISI	0	0	 0.000
 109.692	 0.270	Bip	0	0	 0.000
 109.962	 2.498	A_rough	0	0	 0.000
 112.460	 0.675	Cue	0	0	 0.000
 113.135	 2.835	Reponse	0	0	 0.000
 115.970	 3.037	ISI	0	0	 0.000
 119.007	 0.270	Bip	0	0	 0.000
 119.277	 2.498	A_rough	0	0	 0.000
 121.775	 0.675	Cue	0	0	 0.000
 122.450	 3.038	ISI	0	0	 0.000
 125.488	 0.270	Bip	0	0	 0.000
 125.758	 2.497	H_smooth	0	0	 0.000
 128.255	 1.688	ISI	0	0	 0.000
 129.943	 0.270	Bip	0	0	 0.000
 130.213	 2.497	H_smooth	0	0	 0.000
 132.710	 0.675	Cue	0	0	 0.000
 133.385	 2.835	Reponse	0	0	 0.000
 136.220	 3.038	ISI	0	0	 0.000
 139.258	 0.270	Bip	0	0	 0.000
 139.528	 2.498	H_rough	0	0	 0.000
 142.026	 1.350	ISI	0	0	 0.000
 143.376	 0.270	Bip	0	0	 0.000
 143.646	 2.498	H_rough	0	0	 0.000
 146.144	 2.362	ISI	0	0	 0.000
 148.506	 0.270	Bip	0	0	 0.000
 148.776	 2.498	H_rough	0	0	 0.000
 151.274	 1.349	ISI	0	0	 0.000
 152.623	 0.270	Bip	0	0	 0.000
 152.893	 2.498	H_smooth	0	0	 0.000
 155.391	 0.675	Cue	0	0	 0.000
 156.066	 2.362	ISI	0	0	 0.000
 158.428	 14.176	Rest	0	0	 0.000
 172.604	 0.675	ISI	0	0	 0.000
 173.279	 0.270	Bip	0	0	 0.000
 173.549	 2.498	A_rough	0	0	 0.000
 176.047	 1.351	ISI	0	0	 0.000
 177.398	 0.270	Bip	0	0	 0.000
 177.668	 2.497	A_smooth	0	0	 0.000
 180.165	 1.350	ISI	0	0	 0.000
 181.515	 0.270	Bip	0	0	 0.000
 181.785	 2.497	A_rough	0	0	 0.000
 184.282	 1.350	ISI	0	0	 0.000
 185.632	 0.270	Bip	0	0	 0.000
 185.902	 2.498	A_smooth	0	0	 0.000
 188.400	 0.675	ISI	0	0	 0.000
 189.075	 0.270	Bip	0	0	 0.000
 189.345	 2.497	A_rough	0	0	 0.000
 191.842	 0.675	Cue	0	0	 0.000
 192.517	 2.836	Reponse	0	0	 0.000
 195.353	 3.038	ISI	0	0	 0.000
 198.391	 0.270	Bip	0	0	 0.000
 198.661	 2.497	A_smooth	0	0	 0.000
 201.158	 0.675	Cue	0	0	 0.000
 201.833	 2.363	ISI	0	0	 0.000
 204.196	 0.270	Bip	0	0	 0.000
 204.466	 2.497	AH_smooth	0	0	 0.000
 206.963	 1.687	ISI	0	0	 0.000
 208.650	 0.270	Bip	0	0	 0.000
 208.920	 2.498	AH_smooth	0	0	 0.000
 211.418	 1.688	ISI	0	0	 0.000
 213.106	 0.270	Bip	0	0	 0.000
 213.376	 2.498	AH_rough	0	0	 0.000
 215.874	 1.687	ISI	0	0	 0.000
 217.561	 0.270	Bip	0	0	 0.000
 217.831	 2.498	AH_rough	0	0	 0.000
 220.329	 1.350	ISI	0	0	 0.000
 221.679	 0.270	Bip	0	0	 0.000
 221.949	 2.497	AH_smooth	0	0	 0.000
 224.446	 2.363	ISI	0	0	 0.000
 226.809	 0.270	Bip	0	0	 0.000
 227.079	 2.498	AH_rough	0	0	 0.000
 229.577	 0.675	Cue	0	0	 0.000
 230.252	 2.835	Reponse	0	0	 0.000
 233.087	 0.675	Cue	0	0	 0.000
 233.762	 3.037	ISI	0	0	 0.000
 236.799	 0.270	Bip	0	0	 0.000
 237.069	 2.498	A_rough	0	0	 0.000
 239.567	 1.350	ISI	0	0	 0.000
 240.917	 0.270	Bip	0	0	 0.000
 241.187	 2.497	A_smooth	0	0	 0.000
 243.684	 1.350	ISI	0	0	 0.000
 245.034	 0.270	Bip	0	0	 0.000
 245.304	 2.499	A_rough	0	0	 0.000
 247.803	 1.687	ISI	0	0	 0.000
 249.490	 0.270	Bip	0	0	 0.000
 249.760	 2.498	A_smooth	0	0	 0.000
 252.258	 0.675	Cue	0	0	 0.000
 252.933	 2.835	Reponse	0	0	 0.000
 255.768	 3.037	ISI	0	0	 0.000
 258.805	 0.270	Bip	0	0	 0.000
 259.075	 2.497	A_smooth	0	0	 0.000
 261.572	 1.350	ISI	0	0	 0.000
 262.922	 0.270	Bip	0	0	 0.000
 263.192	 2.499	A_rough	0	0	 0.000
 265.691	 0.675	Cue	0	0	 0.000
 266.366	 2.362	ISI	0	0	 0.000
 268.728	 0.270	Bip	0	0	 0.000
 268.998	 2.498	H_rough	0	0	 0.000
 271.496	 0.675	Cue	0	0	 0.000
 272.171	 2.835	Reponse	0	0	 0.000
 275.006	 3.037	ISI	0	0	 0.000
 278.043	 0.270	Bip	0	0	 0.000
 278.313	 2.498	H_rough	0	0	 0.000
 280.811	 1.351	ISI	0	0	 0.000
 282.162	 0.270	Bip	0	0	 0.000
 282.432	 2.497	H_smooth	0	0	 0.000
 284.929	 1.350	ISI	0	0	 0.000
 286.279	 0.270	Bip	0	0	 0.000
 286.549	 2.497	H_smooth	0	0	 0.000
 289.046	 1.350	ISI	0	0	 0.000
 290.396	 0.270	Bip	0	0	 0.000
 290.666	 2.498	H_rough	0	0	 0.000
 293.164	 1.350	ISI	0	0	 0.000
 294.514	 0.270	Bip	0	0	 0.000
 294.784	 2.497	H_smooth	0	0	 0.000
 297.281	 0.675	Cue	0	0	 0.000
 297.956	 1.689	ISI	0	0	 0.000
 299.645	 14.174	Rest	0	0	 0.000
 313.819	 0.675	Cue	0	0	 0.000
 314.494	 2.364	ISI	0	0	 0.000
 316.858	 0.270	Bip	0	0	 0.000
 317.128	 2.497	AH_rough	0	0	 0.000
 319.625	 1.688	ISI	0	0	 0.000
 321.313	 0.270	Bip	0	0	 0.000
 321.583	 2.497	AH_smooth	0	0	 0.000
 324.080	 1.350	ISI	0	0	 0.000
 325.430	 0.270	Bip	0	0	 0.000
 325.700	 2.498	AH_rough	0	0	 0.000
 328.198	 1.350	ISI	0	0	 0.000
 329.548	 0.270	Bip	0	0	 0.000
 329.818	 2.497	AH_rough	0	0	 0.000
 332.315	 1.350	ISI	0	0	 0.000
 333.665	 0.270	Bip	0	0	 0.000
 333.935	 2.499	AH_smooth	0	0	 0.000
 336.434	 0.674	Cue	0	0	 0.000
 337.108	 2.835	Reponse	0	0	 0.000
 339.943	 2.363	ISI	0	0	 0.000
 342.306	 0.270	Bip	0	0	 0.000
 342.576	 2.497	AH_smooth	0	0	 0.000
 345.073	 0.675	Cue	0	0	 0.000
 345.748	 2.363	ISI	0	0	 0.000
 348.111	 0.270	Bip	0	0	 0.000
 348.381	 2.497	A_smooth	0	0	 0.000
 350.878	 0.675	ISI	0	0	 0.000
 351.553	 0.271	Bip	0	0	 0.000
 351.824	 2.498	A_smooth	0	0	 0.000
 354.322	 0.675	Cue	0	0	 0.000
 354.997	 2.835	Reponse	0	0	 0.000
 357.832	 2.362	ISI	0	0	 0.000
 360.194	 0.270	Bip	0	0	 0.000
 360.464	 2.498	A_rough	0	0	 0.000
 362.962	 1.687	ISI	0	0	 0.000
 364.649	 0.270	Bip	0	0	 0.000
 364.919	 2.497	A_smooth	0	0	 0.000
 367.416	 0.675	ISI	0	0	 0.000
 368.091	 0.270	Bip	0	0	 0.000
 368.361	 2.499	A_rough	0	0	 0.000
 370.860	 1.350	ISI	0	0	 0.000
 372.210	 0.270	Bip	0	0	 0.000
 372.480	 2.497	A_rough	0	0	 0.000
 374.977	 0.675	ISI	0	0	 0.000
 375.652	 14.176	Rest	0	0	 0.000
 389.828	 0.675	Cue	0	0	 0.000
 390.503	 1.687	ISI	0	0	 0.000
 392.190	 0.270	Bip	0	0	 0.000
 392.460	 2.498	AH_rough	0	0	 0.000
 394.958	 1.350	ISI	0	0	 0.000
 396.308	 0.270	Bip	0	0	 0.000
 396.578	 2.497	AH_smooth	0	0	 0.000
 399.075	 1.350	ISI	0	0	 0.000
 400.425	 0.270	Bip	0	0	 0.000
 400.695	 2.498	AH_rough	0	0	 0.000
 403.193	 1.351	ISI	0	0	 0.000
 404.544	 0.270	Bip	0	0	 0.000
 404.814	 2.497	AH_rough	0	0	 0.000
 407.311	 0.675	ISI	0	0	 0.000
 407.986	 0.270	Bip	0	0	 0.000
 408.256	 2.498	AH_smooth	0	0	 0.000
 410.754	 0.675	Cue	0	0	 0.000
 411.429	 2.835	Reponse	0	0	 0.000
 414.264	 2.362	ISI	0	0	 0.000
 416.626	 0.270	Bip	0	0	 0.000
 416.896	 2.497	AH_smooth	0	0	 0.000
 419.393	 1.350	ISI	0	0	 0.000
 420.743	 0.270	Bip	0	0	 0.000
 421.013	 2.499	H_rough	0	0	 0.000
 423.512	 0.675	ISI	0	0	 0.000
 424.187	 0.270	Bip	0	0	 0.000
 424.457	 2.497	H_smooth	0	0	 0.000
 426.954	 2.363	ISI	0	0	 0.000
 429.317	 0.270	Bip	0	0	 0.000
 429.587	 2.497	H_rough	0	0	 0.000
 432.084	 0.675	Cue	0	0	 0.000
 432.759	 2.835	Reponse	0	0	 0.000
 435.594	 3.714	ISI	0	0	 0.000
 439.308	 0.270	Bip	0	0	 0.000
 439.578	 2.497	H_smooth	0	0	 0.000
 442.075	 2.362	ISI	0	0	 0.000
 444.437	 0.270	Bip	0	0	 0.000
 444.707	 2.498	H_rough	0	0	 0.000
 447.205	 3.037	ISI	0	0	 0.000
 450.242	 0.270	Bip	0	0	 0.000
 450.512	 2.498	H_smooth	0	0	 0.000
 453.010	 20.183	ISI	0	0	 0.000
