onset	duration	trial_type	expected_response	given_response	response_time
 0.000	 2.701	ISI	0	0	 0.000
 2.701	 1.350	ISI	0	0	 0.000
 4.051	 0.675	Cue	0	0	 0.000
 4.726	 3.038	ISI	0	0	 0.000
 7.764	 0.270	Bip	0	0	 0.000
 8.034	 2.497	AH_rough	0	0	 0.000
 10.531	 3.038	ISI	0	0	 0.000
 13.569	 0.270	Bip	0	0	 0.000
 13.839	 2.497	AH_smooth	0	0	 0.000
 16.336	 0.675	Cue	0	0	 0.000
 17.011	 2.835	Reponse	0	0	 0.000
 19.846	 3.038	ISI	0	0	 0.000
 22.884	 0.270	Bip	0	0	 0.000
 23.154	 2.498	AH_rough	0	0	 0.000
 25.652	 2.362	ISI	0	0	 0.000
 28.014	 0.270	Bip	0	0	 0.000
 28.284	 2.498	AH_smooth	0	0	 0.000
 30.782	 1.350	ISI	0	0	 0.000
 32.132	 0.270	Bip	0	0	 0.000
 32.402	 2.497	AH_rough	0	0	 0.000
 34.899	 2.025	ISI	0	0	 0.000
 36.924	 0.270	Bip	0	0	 0.000
 37.194	 2.499	AH_smooth	0	0	 0.000
 39.693	 2.025	ISI	0	0	 0.000
 41.718	 0.269	Bip	0	0	 0.000
 41.987	 2.498	H_rough	0	0	 0.000
 44.485	 0.675	Cue	0	0	 0.000
 45.160	 2.835	Reponse	0	0	 0.000
 47.995	 3.712	ISI	0	0	 0.000
 51.707	 0.270	Bip	0	0	 0.000
 51.977	 2.498	H_smooth	0	0	 0.000
 54.475	 1.688	ISI	0	0	 0.000
 56.163	 0.270	Bip	0	0	 0.000
 56.433	 2.498	H_smooth	0	0	 0.000
 58.931	 3.037	ISI	0	0	 0.000
 61.968	 0.270	Bip	0	0	 0.000
 62.238	 2.498	H_rough	0	0	 0.000
 64.736	 2.025	ISI	0	0	 0.000
 66.761	 0.270	Bip	0	0	 0.000
 67.031	 2.497	H_rough	0	0	 0.000
 69.528	 1.687	ISI	0	0	 0.000
 71.215	 0.270	Bip	0	0	 0.000
 71.485	 2.499	H_smooth	0	0	 0.000
 73.984	 0.675	Cue	0	0	 0.000
 74.659	 3.037	ISI	0	0	 0.000
 77.696	 14.176	Rest	0	0	 0.000
 91.872	 0.675	ISI	0	0	 0.000
 92.547	 0.270	Bip	0	0	 0.000
 92.817	 2.498	A_smooth	0	0	 0.000
 95.315	 1.350	ISI	0	0	 0.000
 96.665	 0.269	Bip	0	0	 0.000
 96.934	 2.498	A_rough	0	0	 0.000
 99.432	 1.350	ISI	0	0	 0.000
 100.782	 0.270	Bip	0	0	 0.000
 101.052	 2.497	A_smooth	0	0	 0.000
 103.549	 1.688	ISI	0	0	 0.000
 105.237	 0.270	Bip	0	0	 0.000
 105.507	 2.498	A_rough	0	0	 0.000
 108.005	 0.675	Cue	0	0	 0.000
 108.680	 2.835	Reponse	0	0	 0.000
 111.515	 3.038	ISI	0	0	 0.000
 114.553	 0.270	Bip	0	0	 0.000
 114.823	 2.497	A_rough	0	0	 0.000
 117.320	 1.688	ISI	0	0	 0.000
 119.008	 0.270	Bip	0	0	 0.000
 119.278	 2.497	A_smooth	0	0	 0.000
 121.775	 0.675	Cue	0	0	 0.000
 122.450	 2.363	ISI	0	0	 0.000
 124.813	 0.270	Bip	0	0	 0.000
 125.083	 2.498	AH_smooth	0	0	 0.000
 127.581	 1.350	ISI	0	0	 0.000
 128.931	 0.270	Bip	0	0	 0.000
 129.201	 2.497	AH_rough	0	0	 0.000
 131.698	 1.350	ISI	0	0	 0.000
 133.048	 0.270	Bip	0	0	 0.000
 133.318	 2.498	AH_smooth	0	0	 0.000
 135.816	 1.687	ISI	0	0	 0.000
 137.503	 0.270	Bip	0	0	 0.000
 137.773	 2.498	AH_smooth	0	0	 0.000
 140.271	 1.687	ISI	0	0	 0.000
 141.958	 0.270	Bip	0	0	 0.000
 142.228	 2.499	AH_rough	0	0	 0.000
 144.727	 1.350	ISI	0	0	 0.000
 146.077	 0.270	Bip	0	0	 0.000
 146.347	 2.497	AH_rough	0	0	 0.000
 148.844	 0.675	Cue	0	0	 0.000
 149.519	 2.835	Reponse	0	0	 0.000
 152.354	 0.675	Cue	0	0	 0.000
 153.029	 3.037	ISI	0	0	 0.000
 156.066	 14.176	Rest	0	0	 0.000
 170.242	 0.675	Cue	0	0	 0.000
 170.917	 3.038	ISI	0	0	 0.000
 173.955	 0.270	Bip	0	0	 0.000
 174.225	 2.497	H_rough	0	0	 0.000
 176.722	 2.026	ISI	0	0	 0.000
 178.748	 0.270	Bip	0	0	 0.000
 179.018	 2.497	H_smooth	0	0	 0.000
 181.515	 1.688	ISI	0	0	 0.000
 183.203	 0.270	Bip	0	0	 0.000
 183.473	 2.497	H_rough	0	0	 0.000
 185.970	 0.675	Cue	0	0	 0.000
 186.645	 2.835	Reponse	0	0	 0.000
 189.480	 3.038	ISI	0	0	 0.000
 192.518	 0.270	Bip	0	0	 0.000
 192.788	 2.498	H_smooth	0	0	 0.000
 195.286	 1.350	ISI	0	0	 0.000
 196.636	 0.270	Bip	0	0	 0.000
 196.906	 2.498	H_rough	0	0	 0.000
 199.404	 1.350	ISI	0	0	 0.000
 200.754	 0.270	Bip	0	0	 0.000
 201.024	 2.497	H_smooth	0	0	 0.000
 203.521	 0.675	Cue	0	0	 0.000
 204.196	 3.712	ISI	0	0	 0.000
 207.908	 0.270	Bip	0	0	 0.000
 208.178	 2.498	A_smooth	0	0	 0.000
 210.676	 0.675	ISI	0	0	 0.000
 211.351	 0.270	Bip	0	0	 0.000
 211.621	 2.498	A_rough	0	0	 0.000
 214.119	 0.675	Cue	0	0	 0.000
 214.794	 2.835	Reponse	0	0	 0.000
 217.629	 3.038	ISI	0	0	 0.000
 220.667	 0.270	Bip	0	0	 0.000
 220.937	 2.497	A_rough	0	0	 0.000
 223.434	 1.688	ISI	0	0	 0.000
 225.122	 0.270	Bip	0	0	 0.000
 225.392	 2.497	A_smooth	0	0	 0.000
 227.889	 1.350	ISI	0	0	 0.000
 229.239	 0.270	Bip	0	0	 0.000
 229.509	 2.498	A_smooth	0	0	 0.000
 232.007	 1.688	ISI	0	0	 0.000
 233.695	 0.270	Bip	0	0	 0.000
 233.965	 2.497	A_rough	0	0	 0.000
 236.462	 0.675	ISI	0	0	 0.000
 237.137	 14.176	Rest	0	0	 0.000
 251.313	 0.675	Cue	0	0	 0.000
 251.988	 2.363	ISI	0	0	 0.000
 254.351	 0.270	Bip	0	0	 0.000
 254.621	 2.497	AH_rough	0	0	 0.000
 257.118	 1.687	ISI	0	0	 0.000
 258.805	 0.270	Bip	0	0	 0.000
 259.075	 2.498	AH_smooth	0	0	 0.000
 261.573	 1.350	ISI	0	0	 0.000
 262.923	 0.270	Bip	0	0	 0.000
 263.193	 2.498	AH_rough	0	0	 0.000
 265.691	 1.350	ISI	0	0	 0.000
 267.041	 0.270	Bip	0	0	 0.000
 267.311	 2.498	AH_smooth	0	0	 0.000
 269.809	 0.675	Cue	0	0	 0.000
 270.484	 3.037	Reponse	0	0	 0.000
 273.521	 3.038	ISI	0	0	 0.000
 276.559	 0.270	Bip	0	0	 0.000
 276.829	 2.497	AH_rough	0	0	 0.000
 279.326	 2.025	ISI	0	0	 0.000
 281.351	 0.270	Bip	0	0	 0.000
 281.621	 2.499	AH_smooth	0	0	 0.000
 284.120	 0.674	Cue	0	0	 0.000
 284.794	 3.038	ISI	0	0	 0.000
 287.832	 0.270	Bip	0	0	 0.000
 288.102	 2.497	A_rough	0	0	 0.000
 290.599	 1.688	ISI	0	0	 0.000
 292.287	 0.270	Bip	0	0	 0.000
 292.557	 2.497	A_smooth	0	0	 0.000
 295.054	 0.675	Cue	0	0	 0.000
 295.729	 2.835	Reponse	0	0	 0.000
 298.564	 2.364	ISI	0	0	 0.000
 300.928	 0.270	Bip	0	0	 0.000
 301.198	 2.497	A_rough	0	0	 0.000
 303.695	 1.350	ISI	0	0	 0.000
 305.045	 0.270	Bip	0	0	 0.000
 305.315	 2.498	A_smooth	0	0	 0.000
 307.813	 1.350	ISI	0	0	 0.000
 309.163	 0.270	Bip	0	0	 0.000
 309.433	 2.497	A_smooth	0	0	 0.000
 311.930	 1.687	ISI	0	0	 0.000
 313.617	 0.270	Bip	0	0	 0.000
 313.887	 2.498	A_rough	0	0	 0.000
 316.385	 0.675	Cue	0	0	 0.000
 317.060	 2.363	ISI	0	0	 0.000
 319.423	 0.270	Bip	0	0	 0.000
 319.693	 2.498	H_smooth	0	0	 0.000
 322.191	 1.687	ISI	0	0	 0.000
 323.878	 0.270	Bip	0	0	 0.000
 324.148	 2.498	H_rough	0	0	 0.000
 326.646	 1.687	ISI	0	0	 0.000
 328.333	 0.270	Bip	0	0	 0.000
 328.603	 2.498	H_rough	0	0	 0.000
 331.101	 1.350	ISI	0	0	 0.000
 332.451	 0.270	Bip	0	0	 0.000
 332.721	 2.498	H_smooth	0	0	 0.000
 335.219	 0.675	Cue	0	0	 0.000
 335.894	 2.835	Reponse	0	0	 0.000
 338.729	 3.037	ISI	0	0	 0.000
 341.766	 0.270	Bip	0	0	 0.000
 342.036	 2.498	H_smooth	0	0	 0.000
 344.534	 1.687	ISI	0	0	 0.000
 346.221	 0.270	Bip	0	0	 0.000
 346.491	 2.498	H_rough	0	0	 0.000
 348.989	 0.675	Cue	0	0	 0.000
 349.664	 3.038	ISI	0	0	 0.000
 352.702	 14.175	Rest	0	0	 0.000
 366.877	 0.675	ISI	0	0	 0.000
 367.552	 0.270	Bip	0	0	 0.000
 367.822	 2.498	A_rough	0	0	 0.000
 370.320	 2.025	ISI	0	0	 0.000
 372.345	 0.270	Bip	0	0	 0.000
 372.615	 2.498	A_rough	0	0	 0.000
 375.113	 1.687	ISI	0	0	 0.000
 376.800	 0.270	Bip	0	0	 0.000
 377.070	 2.498	A_smooth	0	0	 0.000
 379.568	 0.675	Cue	0	0	 0.000
 380.243	 2.835	Reponse	0	0	 0.000
 383.078	 2.362	ISI	0	0	 0.000
 385.440	 0.270	Bip	0	0	 0.000
 385.710	 2.499	A_rough	0	0	 0.000
 388.209	 1.687	ISI	0	0	 0.000
 389.896	 0.270	Bip	0	0	 0.000
 390.166	 2.497	A_smooth	0	0	 0.000
 392.663	 1.688	ISI	0	0	 0.000
 394.351	 0.270	Bip	0	0	 0.000
 394.621	 2.497	A_smooth	0	0	 0.000
 397.118	 0.675	Cue	0	0	 0.000
 397.793	 2.363	ISI	0	0	 0.000
 400.156	 0.270	Bip	0	0	 0.000
 400.426	 2.497	AH_rough	0	0	 0.000
 402.923	 0.675	Cue	0	0	 0.000
 403.598	 2.836	Reponse	0	0	 0.000
 406.434	 2.363	ISI	0	0	 0.000
 408.797	 0.270	Bip	0	0	 0.000
 409.067	 2.497	AH_smooth	0	0	 0.000
 411.564	 1.688	ISI	0	0	 0.000
 413.252	 0.270	Bip	0	0	 0.000
 413.522	 2.497	AH_smooth	0	0	 0.000
 416.019	 2.362	ISI	0	0	 0.000
 418.381	 0.270	Bip	0	0	 0.000
 418.651	 2.498	AH_rough	0	0	 0.000
 421.149	 2.026	ISI	0	0	 0.000
 423.175	 0.270	Bip	0	0	 0.000
 423.445	 2.497	AH_smooth	0	0	 0.000
 425.942	 1.688	ISI	0	0	 0.000
 427.630	 0.270	Bip	0	0	 0.000
 427.900	 2.497	AH_rough	0	0	 0.000
 430.397	 3.038	ISI	0	0	 0.000
 433.435	 0.270	Bip	0	0	 0.000
 433.705	 2.497	H_rough	0	0	 0.000
 436.202	 1.688	ISI	0	0	 0.000
 437.890	 0.270	Bip	0	0	 0.000
 438.160	 2.498	H_rough	0	0	 0.000
 440.658	 1.688	ISI	0	0	 0.000
 442.346	 0.270	Bip	0	0	 0.000
 442.616	 2.497	H_smooth	0	0	 0.000
 445.113	 0.675	Cue	0	0	 0.000
 445.788	 2.835	Reponse	0	0	 0.000
 448.623	 3.037	ISI	0	0	 0.000
 451.660	 0.270	Bip	0	0	 0.000
 451.930	 2.498	H_smooth	0	0	 0.000
 454.428	 3.038	ISI	0	0	 0.000
 457.466	 0.270	Bip	0	0	 0.000
 457.736	 2.498	H_smooth	0	0	 0.000
 460.234	 3.037	ISI	0	0	 0.000
 463.271	 0.270	Bip	0	0	 0.000
 463.541	 2.498	H_rough	0	0	 0.000
 466.039	 7.155	ISI	0	0	 0.000
