onset	duration	trial_type	expected_response	given_response	response_time
 0.000	 2.701	ISI	0	0	 0.000
 2.701	 1.350	ISI	0	0	 0.000
 4.051	 0.675	Cue	0	0	 0.000
 4.726	 2.362	ISI	0	0	 0.000
 7.088	 0.270	Bip	0	0	 0.000
 7.358	 2.498	A_rough	0	0	 0.000
 9.856	 3.037	ISI	0	0	 0.000
 12.893	 0.270	Bip	0	0	 0.000
 13.163	 2.497	A_smooth	0	0	 0.000
 15.660	 2.025	ISI	0	0	 0.000
 17.685	 0.271	Bip	0	0	 0.000
 17.956	 2.498	A_smooth	0	0	 0.000
 20.454	 1.687	ISI	0	0	 0.000
 22.141	 0.270	Bip	0	0	 0.000
 22.411	 2.498	A_rough	0	0	 0.000
 24.909	 1.687	ISI	0	0	 0.000
 26.596	 0.270	Bip	0	0	 0.000
 26.866	 2.498	A_rough	0	0	 0.000
 29.364	 2.025	ISI	0	0	 0.000
 31.389	 0.270	Bip	0	0	 0.000
 31.659	 2.497	A_smooth	0	0	 0.000
 34.156	 0.675	Cue	0	0	 0.000
 34.831	 2.836	Reponse	0	0	 0.000
 37.667	 0.675	Cue	0	0	 0.000
 38.342	 3.037	ISI	0	0	 0.000
 41.379	 0.270	Bip	0	0	 0.000
 41.649	 2.498	AH_rough	0	0	 0.000
 44.147	 2.025	ISI	0	0	 0.000
 46.172	 0.270	Bip	0	0	 0.000
 46.442	 2.497	AH_smooth	0	0	 0.000
 48.939	 1.688	ISI	0	0	 0.000
 50.627	 0.270	Bip	0	0	 0.000
 50.897	 2.498	AH_rough	0	0	 0.000
 53.395	 0.675	Cue	0	0	 0.000
 54.070	 2.835	Reponse	0	0	 0.000
 56.905	 3.713	ISI	0	0	 0.000
 60.618	 0.270	Bip	0	0	 0.000
 60.888	 2.497	AH_smooth	0	0	 0.000
 63.385	 3.037	ISI	0	0	 0.000
 66.422	 0.270	Bip	0	0	 0.000
 66.692	 2.498	AH_rough	0	0	 0.000
 69.190	 2.363	ISI	0	0	 0.000
 71.553	 0.270	Bip	0	0	 0.000
 71.823	 2.498	AH_smooth	0	0	 0.000
 74.321	 0.675	Cue	0	0	 0.000
 74.996	 3.712	ISI	0	0	 0.000
 78.708	 14.176	Rest	0	0	 0.000
 92.884	 0.675	Cue	0	0	 0.000
 93.559	 3.037	ISI	0	0	 0.000
 96.596	 0.270	Bip	0	0	 0.000
 96.866	 2.498	H_rough	0	0	 0.000
 99.364	 3.037	ISI	0	0	 0.000
 102.401	 0.270	Bip	0	0	 0.000
 102.671	 2.498	H_smooth	0	0	 0.000
 105.169	 1.688	ISI	0	0	 0.000
 106.857	 0.270	Bip	0	0	 0.000
 107.127	 2.498	H_rough	0	0	 0.000
 109.625	 2.362	ISI	0	0	 0.000
 111.987	 0.270	Bip	0	0	 0.000
 112.257	 2.498	H_rough	0	0	 0.000
 114.755	 1.687	ISI	0	0	 0.000
 116.442	 0.270	Bip	0	0	 0.000
 116.712	 2.497	H_smooth	0	0	 0.000
 119.209	 0.675	Cue	0	0	 0.000
 119.884	 2.835	Reponse	0	0	 0.000
 122.719	 3.039	ISI	0	0	 0.000
 125.758	 0.270	Bip	0	0	 0.000
 126.028	 2.497	H_smooth	0	0	 0.000
 128.525	 0.675	Cue	0	0	 0.000
 129.200	 3.038	ISI	0	0	 0.000
 132.238	 0.270	Bip	0	0	 0.000
 132.508	 2.497	A_smooth	0	0	 0.000
 135.005	 1.688	ISI	0	0	 0.000
 136.693	 0.270	Bip	0	0	 0.000
 136.963	 2.497	A_rough	0	0	 0.000
 139.460	 0.675	Cue	0	0	 0.000
 140.135	 2.836	Reponse	0	0	 0.000
 142.971	 3.037	ISI	0	0	 0.000
 146.008	 0.270	Bip	0	0	 0.000
 146.278	 2.498	A_smooth	0	0	 0.000
 148.776	 1.687	ISI	0	0	 0.000
 150.463	 0.270	Bip	0	0	 0.000
 150.733	 2.498	A_rough	0	0	 0.000
 153.231	 1.687	ISI	0	0	 0.000
 154.918	 0.270	Bip	0	0	 0.000
 155.188	 2.498	A_rough	0	0	 0.000
 157.686	 2.026	ISI	0	0	 0.000
 159.712	 0.270	Bip	0	0	 0.000
 159.982	 2.497	A_smooth	0	0	 0.000
 162.479	 0.675	ISI	0	0	 0.000
 163.154	 14.176	Rest	0	0	 0.000
 177.330	 0.675	Cue	0	0	 0.000
 178.005	 2.362	ISI	0	0	 0.000
 180.367	 0.270	Bip	0	0	 0.000
 180.637	 2.498	AH_rough	0	0	 0.000
 183.135	 0.675	ISI	0	0	 0.000
 183.810	 0.270	Bip	0	0	 0.000
 184.080	 2.497	AH_rough	0	0	 0.000
 186.577	 1.350	ISI	0	0	 0.000
 187.927	 0.270	Bip	0	0	 0.000
 188.197	 2.498	AH_smooth	0	0	 0.000
 190.695	 1.350	ISI	0	0	 0.000
 192.045	 0.270	Bip	0	0	 0.000
 192.315	 2.498	AH_smooth	0	0	 0.000
 194.813	 1.687	ISI	0	0	 0.000
 196.500	 0.270	Bip	0	0	 0.000
 196.770	 2.498	AH_rough	0	0	 0.000
 199.268	 1.687	ISI	0	0	 0.000
 200.955	 0.270	Bip	0	0	 0.000
 201.225	 2.498	AH_smooth	0	0	 0.000
 203.723	 0.675	Cue	0	0	 0.000
 204.398	 2.835	Reponse	0	0	 0.000
 207.233	 3.713	ISI	0	0	 0.000
 210.946	 0.270	Bip	0	0	 0.000
 211.216	 2.498	H_smooth	0	0	 0.000
 213.714	 1.350	ISI	0	0	 0.000
 215.064	 0.270	Bip	0	0	 0.000
 215.334	 2.497	H_rough	0	0	 0.000
 217.831	 1.350	ISI	0	0	 0.000
 219.181	 0.270	Bip	0	0	 0.000
 219.451	 2.497	H_rough	0	0	 0.000
 221.948	 0.675	Cue	0	0	 0.000
 222.623	 2.835	Reponse	0	0	 0.000
 225.458	 3.039	ISI	0	0	 0.000
 228.497	 0.270	Bip	0	0	 0.000
 228.767	 2.497	H_smooth	0	0	 0.000
 231.264	 2.363	ISI	0	0	 0.000
 233.627	 0.270	Bip	0	0	 0.000
 233.897	 2.497	H_smooth	0	0	 0.000
 236.394	 2.363	ISI	0	0	 0.000
 238.757	 0.270	Bip	0	0	 0.000
 239.027	 2.497	H_rough	0	0	 0.000
 241.524	 0.675	Cue	0	0	 0.000
 242.199	 3.038	ISI	0	0	 0.000
 245.237	 14.175	Rest	0	0	 0.000
 259.412	 0.675	ISI	0	0	 0.000
 260.087	 0.270	Bip	0	0	 0.000
 260.357	 2.499	A_rough	0	0	 0.000
 262.856	 2.025	ISI	0	0	 0.000
 264.881	 0.270	Bip	0	0	 0.000
 265.151	 2.497	A_smooth	0	0	 0.000
 267.648	 1.688	ISI	0	0	 0.000
 269.336	 0.270	Bip	0	0	 0.000
 269.606	 2.497	A_rough	0	0	 0.000
 272.103	 0.675	ISI	0	0	 0.000
 272.778	 0.270	Bip	0	0	 0.000
 273.048	 2.497	A_smooth	0	0	 0.000
 275.545	 2.025	ISI	0	0	 0.000
 277.570	 0.270	Bip	0	0	 0.000
 277.840	 2.499	A_rough	0	0	 0.000
 280.339	 0.675	Cue	0	0	 0.000
 281.014	 2.835	Reponse	0	0	 0.000
 283.849	 3.037	ISI	0	0	 0.000
 286.886	 0.270	Bip	0	0	 0.000
 287.156	 2.498	A_smooth	0	0	 0.000
 289.654	 0.675	Cue	0	0	 0.000
 290.329	 3.037	ISI	0	0	 0.000
 293.366	 0.270	Bip	0	0	 0.000
 293.636	 2.497	H_smooth	0	0	 0.000
 296.133	 1.689	ISI	0	0	 0.000
 297.822	 0.270	Bip	0	0	 0.000
 298.092	 2.497	H_smooth	0	0	 0.000
 300.589	 1.688	ISI	0	0	 0.000
 302.277	 0.270	Bip	0	0	 0.000
 302.547	 2.497	H_rough	0	0	 0.000
 305.044	 1.688	ISI	0	0	 0.000
 306.732	 0.270	Bip	0	0	 0.000
 307.002	 2.497	H_rough	0	0	 0.000
 309.499	 1.688	ISI	0	0	 0.000
 311.187	 0.270	Bip	0	0	 0.000
 311.457	 2.497	H_smooth	0	0	 0.000
 313.954	 0.675	Cue	0	0	 0.000
 314.629	 2.836	Reponse	0	0	 0.000
 317.465	 2.363	ISI	0	0	 0.000
 319.828	 0.270	Bip	0	0	 0.000
 320.098	 2.497	H_rough	0	0	 0.000
 322.595	 1.687	ISI	0	0	 0.000
 324.282	 0.270	Bip	0	0	 0.000
 324.552	 2.498	AH_smooth	0	0	 0.000
 327.050	 0.675	Cue	0	0	 0.000
 327.725	 2.835	Reponse	0	0	 0.000
 330.560	 2.363	ISI	0	0	 0.000
 332.923	 0.270	Bip	0	0	 0.000
 333.193	 2.498	AH_rough	0	0	 0.000
 335.691	 1.687	ISI	0	0	 0.000
 337.378	 0.270	Bip	0	0	 0.000
 337.648	 2.498	AH_rough	0	0	 0.000
 340.146	 2.362	ISI	0	0	 0.000
 342.508	 0.270	Bip	0	0	 0.000
 342.778	 2.498	AH_smooth	0	0	 0.000
 345.276	 1.350	ISI	0	0	 0.000
 346.626	 0.270	Bip	0	0	 0.000
 346.896	 2.497	AH_smooth	0	0	 0.000
 349.393	 1.688	ISI	0	0	 0.000
 351.081	 0.270	Bip	0	0	 0.000
 351.351	 2.498	AH_rough	0	0	 0.000
 353.849	 0.675	Cue	0	0	 0.000
 354.524	 3.037	ISI	0	0	 0.000
 357.561	 14.176	Rest	0	0	 0.000
 371.737	 0.675	Cue	0	0	 0.000
 372.412	 2.362	ISI	0	0	 0.000
 374.774	 0.270	Bip	0	0	 0.000
 375.044	 2.498	H_rough	0	0	 0.000
 377.542	 1.687	ISI	0	0	 0.000
 379.229	 0.270	Bip	0	0	 0.000
 379.499	 2.498	H_rough	0	0	 0.000
 381.997	 1.687	ISI	0	0	 0.000
 383.684	 0.270	Bip	0	0	 0.000
 383.954	 2.499	H_smooth	0	0	 0.000
 386.453	 1.350	ISI	0	0	 0.000
 387.803	 0.270	Bip	0	0	 0.000
 388.073	 2.497	H_smooth	0	0	 0.000
 390.570	 1.350	ISI	0	0	 0.000
 391.920	 0.270	Bip	0	0	 0.000
 392.190	 2.498	H_rough	0	0	 0.000
 394.688	 0.675	Reponse	0	0	 0.000
 395.363	 2.362	ISI	0	0	 0.000
 397.725	 0.270	Bip	0	0	 0.000
 397.995	 2.497	H_smooth	0	0	 0.000
 400.492	 0.675	Cue	0	0	 0.000
 401.167	 2.364	ISI	0	0	 0.000
 403.531	 0.270	Bip	0	0	 0.000
 403.801	 2.497	A_rough	0	0	 0.000
 406.298	 1.688	ISI	0	0	 0.000
 407.986	 0.270	Bip	0	0	 0.000
 408.256	 2.497	A_smooth	0	0	 0.000
 410.753	 2.025	ISI	0	0	 0.000
 412.778	 0.270	Bip	0	0	 0.000
 413.048	 2.498	A_rough	0	0	 0.000
 415.546	 1.687	ISI	0	0	 0.000
 417.233	 0.270	Bip	0	0	 0.000
 417.503	 2.499	A_smooth	0	0	 0.000
 420.002	 0.675	Cue	0	0	 0.000
 420.677	 2.835	Reponse	0	0	 0.000
 423.512	 3.037	ISI	0	0	 0.000
 426.549	 0.270	Bip	0	0	 0.000
 426.819	 2.497	A_smooth	0	0	 0.000
 429.316	 2.363	ISI	0	0	 0.000
 431.679	 0.270	Bip	0	0	 0.000
 431.949	 2.497	A_rough	0	0	 0.000
 434.446	 0.675	Cue	0	0	 0.000
 435.121	 3.714	ISI	0	0	 0.000
 438.835	 0.270	Bip	0	0	 0.000
 439.105	 2.497	AH_smooth	0	0	 0.000
 441.602	 1.688	ISI	0	0	 0.000
 443.290	 0.270	Bip	0	0	 0.000
 443.560	 2.497	AH_smooth	0	0	 0.000
 446.057	 3.038	ISI	0	0	 0.000
 449.095	 0.270	Bip	0	0	 0.000
 449.365	 2.497	AH_smooth	0	0	 0.000
 451.862	 2.362	ISI	0	0	 0.000
 454.224	 0.270	Bip	0	0	 0.000
 454.494	 2.499	AH_rough	0	0	 0.000
 456.993	 3.712	ISI	0	0	 0.000
 460.705	 0.270	Bip	0	0	 0.000
 460.975	 2.498	AH_rough	0	0	 0.000
 463.473	 0.675	Cue	0	0	 0.000
 464.148	 2.835	Reponse	0	0	 0.000
 466.983	 3.037	ISI	0	0	 0.000
 470.020	 0.270	Bip	0	0	 0.000
 470.290	 2.499	AH_rough	0	0	 0.000
 472.789	 0.405	ISI	0	0	 0.000
